index,wav_file,old_name,segment_text,question,C1,C2,C3,C4,C_correct,summary,duration,training.thisRepN,training.thisTrialN,training.thisN,training.thisIndex,sum_true.thisRepN,sum_true.thisTrialN,sum_true.thisN,sum_true.thisIndex,dummy_loop.thisRepN,dummy_loop.thisTrialN,dummy_loop.thisN,dummy_loop.thisIndex,experiment.thisRepN,experiment.thisTrialN,experiment.thisN,experiment.thisIndex,sum_true_exp.thisRepN,sum_true_exp.thisTrialN,sum_true_exp.thisN,sum_true_exp.thisIndex,dummy_loop_exp.thisRepN,dummy_loop_exp.thisTrialN,dummy_loop_exp.thisN,dummy_loop_exp.thisIndex,thisRow.t,notes,Instructions.started,Instructions.stopped,Start_Segment_Train.started,Play_train.started,Trial_counter_train.started,text_5.started,Start_Segment_Train.stopped,Play_train.numClicks,Play_train.timesOn,Play_train.timesOff,Training_Segment.started,Experimen_audio.started,polygon.started,polygon.stopped,Training_Segment.stopped,Rating.started,slider.started,text_3.started,button_2.started,Rating.stopped,slider.response,slider.rt,button_2.numClicks,button_2.timesOn,button_2.timesOff,Start_Summary.started,text_2.started,Start_Summary.stopped,summary_button.numClicks,summary_button.timesOn,summary_button.timesOff,skip_button.numClicks,skip_button.timesOn,skip_button.timesOff,Summary.started,textbox.started,Summary.stopped,textbox.text,Multiple_Choice_2.started,Multiple_Choice_2.stopped,A.numClicks,A.timesOn,A.timesOff,B.numClicks,B.timesOn,B.timesOff,C.numClicks,C.timesOn,C.timesOff,D.numClicks,D.timesOn,D.timesOff,textbox.stopped,Start_Exp.started,Start_exp.started,Start.started,Start_Exp.stopped,Start.numClicks,Start.timesOn,Start.timesOff,Start_Segment.started,Play.started,Trial_counter.started,text_6.started,Start_Segment.stopped,Play.numClicks,Play.timesOn,Play.timesOff,Start_Sum_Exp.started,text_4.started,summary_button_exp.started,skip_button_exp.started,Start_Sum_Exp.stopped,summary_button_exp.numClicks,summary_button_exp.timesOn,summary_button_exp.timesOff,skip_button_exp.numClicks,skip_button_exp.timesOn,skip_button_exp.timesOff,participant,session,date,expName,psychopyVersion,frameRate,expStart,
1,Someday_trial_condition.wav,Someday__Someday__Maybe__Unabridged___File_069_of_116_3.wav,It's a gut feeling You can't nickname him He's a real person not a joke person You don't have to tell me Only a real person would try to shake hands with my best friend's foot Jane you're not explaining it right It was very romantic And thankfully our steaming bowl of bright yellow melted cheese with flecks of green chilies arrives Listen she says dipping a chip into the creamy depths You're the one with the brand new personality I'm still the same old Jane,"What does the narrator have, according to Jane?",A) A new recipe for dipping sauce,B) A new personality,C) A new restaurant suggestion,D) A new pair of shoes,B) A new personality,yes,30,0,0,0,0,0,0,0,0,0,0,0,0,,,,,,,,,,,,,68.92812779099995,,0.011411624999709602,15.397871749999922,15.406894165999802,15.422465332999764,15.422465332999764,15.422465332999764,20.108979374999763,1,[4.694097250000141],[4.69410012499975],20.109415957999772,20.15809370800007,20.15245591599978,50.16868429099986,50.13869266599977,50.16094358300006,50.37096033299986,50.37096033299986,53.155002375000095,54.45014662499989,9.933333333333334,2.968672415999663,1,[1.3053603339999427],[1.305362791999869],54.452177499999834,54.459416707999935,68.89663220800003,1,[14.443089458000031],[14.443096957999842],0,,,68.89742908300013,68.92812779099995,83.9061583749999,personality chip talking jane having a conversation amongst roommates ,,,,,,,,,,,,,,,,,,,,,,,,,,,,,,,,,,,,,,,,,,p_3,001,2024-03-11_13h22.04.588,speech_rate,2023.2.3,None,2024-03-11 13h28.11.640394 -0700,
1,Someday_trial_condition.wav,Someday__Someday__Maybe__Unabridged___File_069_of_116_3.wav,It's a gut feeling You can't nickname him He's a real person not a joke person You don't have to tell me Only a real person would try to shake hands with my best friend's foot Jane you're not explaining it right It was very romantic And thankfully our steaming bowl of bright yellow melted cheese with flecks of green chilies arrives Listen she says dipping a chip into the creamy depths You're the one with the brand new personality I'm still the same old Jane,"What does the narrator have, according to Jane?",A) A new recipe for dipping sauce,B) A new personality,C) A new restaurant suggestion,D) A new pair of shoes,B) A new personality,yes,30,0,0,0,0,0,0,0,0,,,,,,,,,,,,,,,,,,,,,,,,,,,,,,,,,,,,,,,,,,,,,,,,,,,,,,,,,,,,,,,,,,,,,,,,,,,,,,,,,,,,,,,,,,,,,,,,,,p_3,001,2024-03-11_13h22.04.588,speech_rate,2023.2.3,None,2024-03-11 13h28.11.640394 -0700,
1,Someday_trial_condition.wav,Someday__Someday__Maybe__Unabridged___File_069_of_116_3.wav,It's a gut feeling You can't nickname him He's a real person not a joke person You don't have to tell me Only a real person would try to shake hands with my best friend's foot Jane you're not explaining it right It was very romantic And thankfully our steaming bowl of bright yellow melted cheese with flecks of green chilies arrives Listen she says dipping a chip into the creamy depths You're the one with the brand new personality I'm still the same old Jane,"What does the narrator have, according to Jane?",A) A new recipe for dipping sauce,B) A new personality,C) A new restaurant suggestion,D) A new pair of shoes,B) A new personality,yes,30,0,0,0,0,,,,,,,,,,,,,,,,,,,,,,,,,,,,,,,,,,,,,,,,,,,,,,,,,,,,,,,,,,,,,83.90640195800006,89.69040458300015,0,,,1,5.765661542000089,5.765664542000195,0,,,0,,,,,,,,,,,,,,,,,,,,,,,,,,,,,,p_3,001,2024-03-11_13h22.04.588,speech_rate,2023.2.3,None,2024-03-11 13h28.11.640394 -0700,
2,Someday_trial_condition-4x.wav,Someday__Someday__Maybe__Unabridged___File_103_of_116_1.wav,Isn't halfway where two people usually meet Well in general maybe But tonight this is sort of a big deal for me It's my night I'm not sure you you don't think I get it Well no I mean how could you I'm having trouble making sense of this conversation James is speaking with authority but there's something wrong Something feels so wrong somehow I don't care about waving and smiling and having my picture taken with him,"How does James speak, according to the narrator?",A) With compassion,B) With grief,C) With hesitation,D) With authority,D) With authority,yes,7.5,0,1,1,1,0,0,0,0,0,0,0,0,,,,,,,,,,,,,106.67572574999986,,,,89.69118637500014,89.70013779100009,89.70013779100009,89.70013779100009,94.5807836250001,1,[4.885962542000016],[4.885964999999942],94.58099841600006,94.59706895766682,94.59576095800003,102.10970412500001,102.09136070800014,102.10236862500005,102.33327283300014,102.33327283300014,104.43967945799977,105.0646855,3.058333333333333,2.3102137500000026,1,[0.6371711249998953],[0.6371737079998638],105.06526945799988,105.07231633299989,106.66542920799975,1,[1.5994172919999983],[1.5994198749999669],0,,,106.66631941600008,106.67572574999986,121.65922808300002,something really wrong not sure about the context jane was unsure about something,,,,,,,,,,,,,,,121.67888491599979,,,,,,,,,,,,,,,,,,,,,,,,,,,p_3,001,2024-03-11_13h22.04.588,speech_rate,2023.2.3,None,2024-03-11 13h28.11.640394 -0700,
2,Someday_trial_condition-4x.wav,Someday__Someday__Maybe__Unabridged___File_103_of_116_1.wav,Isn't halfway where two people usually meet Well in general maybe But tonight this is sort of a big deal for me It's my night I'm not sure you you don't think I get it Well no I mean how could you I'm having trouble making sense of this conversation James is speaking with authority but there's something wrong Something feels so wrong somehow I don't care about waving and smiling and having my picture taken with him,"How does James speak, according to the narrator?",A) With compassion,B) With grief,C) With hesitation,D) With authority,D) With authority,yes,7.5,0,1,1,1,0,0,0,0,,,,,,,,,,,,,,,,,,,,,,,,,,,,,,,,,,,,,,,,,,,,,,,,,,,,,,,,,,,,,,,,,,,,,,,,,,,,,,,,,,,,,,,,,,,,,,,,,,p_3,001,2024-03-11_13h22.04.588,speech_rate,2023.2.3,None,2024-03-11 13h28.11.640394 -0700,
2,Someday_trial_condition-4x.wav,Someday__Someday__Maybe__Unabridged___File_103_of_116_1.wav,Isn't halfway where two people usually meet Well in general maybe But tonight this is sort of a big deal for me It's my night I'm not sure you you don't think I get it Well no I mean how could you I'm having trouble making sense of this conversation James is speaking with authority but there's something wrong Something feels so wrong somehow I don't care about waving and smiling and having my picture taken with him,"How does James speak, according to the narrator?",A) With compassion,B) With grief,C) With hesitation,D) With authority,D) With authority,yes,7.5,0,1,1,1,,,,,,,,,,,,,,,,,,,,,,,,,,,,,,,,,,,,,,,,,,,,,,,,,,,,,,,,,,,,,121.65950695799984,128.28648795799973,0,,,0,,,1,6.61701525000035,6.617018417000054,0,,,,,,,,,,,,,,,,,,,,,,,,,,,,,,p_3,001,2024-03-11_13h22.04.588,speech_rate,2023.2.3,None,2024-03-11 13h28.11.640394 -0700,
,Someday_36_condition-3-5x.wav,Someday__Someday__Maybe__Unabridged___File_020_of_116_1.wav,Everyone already knows everyone knows I fell they saw everything I'm humiliated What's that I say trying to buy myself some time to figure out how to respond with dignity nice class I said huh Right Everyone seems to be doing well tonight Oh Right Yes they do Did you by any chance see my monologue No sorry but I heard part of it on the monitor sound like you really went for it Oh Thanks Yes I do think I went for it,How does the narrator feel after monologue?,A. She is humiliated,B. She is satisfied,C. She is happy,D. She is moved by it,A. She is humiliated,no,9.321875,,,,,,,,,,,,,0,0,0,0,,,,,,,,,229.08645545799982,,,,,,,,,,,,231.55513170799986,231.57098904166676,231.57287404099998,240.88771133299997,240.89949937499978,240.91071245800003,241.1461264159998,241.1461264159998,242.90489141599983,244.78917924999996,3.166666666666667,1.9686892919999082,1,[1.894047582999974],[1.894050000000334],,,,,,,,,,,,,,244.78986354100016,248.45634929100015,1,3.6577661669998633,3.657768541999758,0,,,0,,,0,,,,128.28696866600012,128.29421387499997,128.29421387499997,229.020685125,1,[100.73289687499982],[100.73289966699986],229.07591712500016,229.08645545799982,229.08645545799982,229.08645545799982,231.5547603330001,1,[2.4756632499997977],[2.475665874999777],,,,,,,,,,,,p_3,001,2024-03-11_13h22.04.588,speech_rate,2023.2.3,None,2024-03-11 13h28.11.640394 -0700,
,Someday_20_condition-3-5x.wav,Someday__Someday__Maybe__Unabridged___File_012_of_116_1.wav,Upstairs the waiting room is crowded which means there must be a few different casting calls There are boys and girls near the age of the elevator twins a couple of men in their 50s both in suit and tie and several girls who remind me of me but a better more put together me the me who would play me in the TV movie of the fictional life of the real me I sign in Name time arrived time scheduled agency social security number,What observation does the narrator make about the individuals in the waiting room?,A. They are all likely there for the same casting call,B. They are unorganized and scattered,"C. They appear to be different versions of the narrator, better and more composed",D. They are unrelated to the narrator's field of work,"C. They appear to be different versions of the narrator, better and more composed",yes,8.58125,,,,,,,,,,,,,0,1,1,1,0,0,0,0,0,0,0,0,264.46805241599986,,,,,,,,,,,,251.33922299999995,251.3552155416667,251.35619054100016,259.9330974579998,259.9379429579999,259.9491724579998,260.15293900000006,260.15293900000006,261.965399875,262.57791254099993,5.1,1.9886366669998097,1,[0.6254805829998986],[0.6254827080001633],,,,,,,,,,264.45840020800006,264.46805241599986,279.4513958749999,agency casting call something about an audition and there were other girls probably jane talking about acting audition,,,,,,,,,,,,,,,279.47537387500006,,,,,,,,248.45734879099973,248.46370120799975,248.46370120799975,248.46370120799975,251.33902337500012,1,[2.880391416999828],[2.8803940839998177],262.578486375,262.5857666659999,262.5857666659999,262.5857666659999,264.4575110410001,1,[1.877805583999816],[1.8778081250002288],0,,,p_3,001,2024-03-11_13h22.04.588,speech_rate,2023.2.3,None,2024-03-11 13h28.11.640394 -0700,
,Someday_20_condition-3-5x.wav,Someday__Someday__Maybe__Unabridged___File_012_of_116_1.wav,Upstairs the waiting room is crowded which means there must be a few different casting calls There are boys and girls near the age of the elevator twins a couple of men in their 50s both in suit and tie and several girls who remind me of me but a better more put together me the me who would play me in the TV movie of the fictional life of the real me I sign in Name time arrived time scheduled agency social security number,What observation does the narrator make about the individuals in the waiting room?,A. They are all likely there for the same casting call,B. They are unorganized and scattered,"C. They appear to be different versions of the narrator, better and more composed",D. They are unrelated to the narrator's field of work,"C. They appear to be different versions of the narrator, better and more composed",yes,8.58125,,,,,,,,,,,,,0,1,1,1,0,0,0,0,,,,,,,,,,,,,,,,,,,,,,,,,,,,,,,,,,,,,,,,,,,,,,,,,,,,,,,,,,,,,,,,,,,,,,,,,,,,,,,,,,,,,,p_3,001,2024-03-11_13h22.04.588,speech_rate,2023.2.3,None,2024-03-11 13h28.11.640394 -0700,
,Someday_20_condition-3-5x.wav,Someday__Someday__Maybe__Unabridged___File_012_of_116_1.wav,Upstairs the waiting room is crowded which means there must be a few different casting calls There are boys and girls near the age of the elevator twins a couple of men in their 50s both in suit and tie and several girls who remind me of me but a better more put together me the me who would play me in the TV movie of the fictional life of the real me I sign in Name time arrived time scheduled agency social security number,What observation does the narrator make about the individuals in the waiting room?,A. They are all likely there for the same casting call,B. They are unorganized and scattered,"C. They appear to be different versions of the narrator, better and more composed",D. They are unrelated to the narrator's field of work,"C. They appear to be different versions of the narrator, better and more composed",yes,8.58125,,,,,,,,,,,,,0,1,1,1,,,,,,,,,,,,,,,,,,,,,,,,,,,,,,,,,,,,,,,,,,,,,,,,,279.4516668749998,289.16187983300006,0,,,0,,,1,9.696264124999743,9.696266874999765,0,,,,,,,,,,,,,,,,,,,,,,,,,,,,,,p_3,001,2024-03-11_13h22.04.588,speech_rate,2023.2.3,None,2024-03-11 13h28.11.640394 -0700,
,Someday_119_condition-2-5x.wav,Someday__Someday__Maybe__Unabridged___File_053_of_116_1.wav,But when did you start doing this I didn't see any of it in the fridge Yeah no that's the best part You don't have to refrigerate it It comes in a box It's freeze dried in a package and you just take it out and soak it You soak it It sounds weird I know but it's actually very convenient because you can take it anywhere you know on the go Why can't you just eat actual healthy food the kind that doesn't require soaking Well obviously because I can't be trusted to control myself This teaches you portion control,Why does the narrator prefer soaked food?,A. Because it helps with portion control,B. Because it tastes good,C. Becauseit is cheap,D. Because the friend likes it,A. Because it helps with portion control,yes,12.551875,,,,,,,,,,,,,0,2,2,2,0,0,0,0,0,0,0,0,308.5030163749998,,,,,,,,,,,,291.5263547079999,291.5423179576667,291.54386479100003,304.10235112500004,304.10409812499984,304.12582437499987,304.3646451659997,304.3646451659997,305.761893375,306.59667358299976,8.666666666666668,1.6091733339999337,1,[0.8438311670001895],[0.8438336250001157],,,,,,,,,,308.4938888329998,308.5030163749998,323.48725650000006,soaking food and the person is wondering why it can't be healthier but it's good for portion control ,,,,,,,,,,,,,,,323.5061989579999,,,,,,,,289.16245654099976,289.1688641659998,289.1688641659998,289.1688641659998,291.5261533749999,1,[2.363233332999698],[2.363235999999688],306.59718666599974,306.60364741600006,306.60364741600006,306.60364741600006,308.4930990409998,1,[1.8951714169998013],[1.8951746249999815],0,,,p_3,001,2024-03-11_13h22.04.588,speech_rate,2023.2.3,None,2024-03-11 13h28.11.640394 -0700,
,Someday_119_condition-2-5x.wav,Someday__Someday__Maybe__Unabridged___File_053_of_116_1.wav,But when did you start doing this I didn't see any of it in the fridge Yeah no that's the best part You don't have to refrigerate it It comes in a box It's freeze dried in a package and you just take it out and soak it You soak it It sounds weird I know but it's actually very convenient because you can take it anywhere you know on the go Why can't you just eat actual healthy food the kind that doesn't require soaking Well obviously because I can't be trusted to control myself This teaches you portion control,Why does the narrator prefer soaked food?,A. Because it helps with portion control,B. Because it tastes good,C. Becauseit is cheap,D. Because the friend likes it,A. Because it helps with portion control,yes,12.551875,,,,,,,,,,,,,0,2,2,2,0,0,0,0,,,,,,,,,,,,,,,,,,,,,,,,,,,,,,,,,,,,,,,,,,,,,,,,,,,,,,,,,,,,,,,,,,,,,,,,,,,,,,,,,,,,,,p_3,001,2024-03-11_13h22.04.588,speech_rate,2023.2.3,None,2024-03-11 13h28.11.640394 -0700,
,Someday_119_condition-2-5x.wav,Someday__Someday__Maybe__Unabridged___File_053_of_116_1.wav,But when did you start doing this I didn't see any of it in the fridge Yeah no that's the best part You don't have to refrigerate it It comes in a box It's freeze dried in a package and you just take it out and soak it You soak it It sounds weird I know but it's actually very convenient because you can take it anywhere you know on the go Why can't you just eat actual healthy food the kind that doesn't require soaking Well obviously because I can't be trusted to control myself This teaches you portion control,Why does the narrator prefer soaked food?,A. Because it helps with portion control,B. Because it tastes good,C. Becauseit is cheap,D. Because the friend likes it,A. Because it helps with portion control,yes,12.551875,,,,,,,,,,,,,0,2,2,2,,,,,,,,,,,,,,,,,,,,,,,,,,,,,,,,,,,,,,,,,,,,,,,,,323.4875153329999,325.79714516600006,1,2.300408542000241,2.3004111250002097,0,,,0,,,0,,,,,,,,,,,,,,,,,,,,,,,,,,,,,,p_3,001,2024-03-11_13h22.04.588,speech_rate,2023.2.3,None,2024-03-11 13h28.11.640394 -0700,
,Someday_78_condition.wav,Someday__Someday__Maybe__Unabridged___File_036_of_116_0.wav,And I would like to help you get started So he claps his hands together once for emphasis as if he's just pulled a rabbit out of his hat and wants to make sure the audience sees it I'm stunned He just said he wants to work with me I thought it would be so much harder to get anyone in the professional world to say that ever An actual real life agent wants to represent me I don't have to do this alone I'm shocked What is that,What is the narrator's reaction to the agent's offer?,A. She is excited and grateful,B. She is stunned,C. She is uninterested in the offer,D. She expected the offer,B. She is stunned,no,28.12,,,,,,,,,,,,,0,3,3,3,,,,,,,,,325.8053285000001,,,,,,,,,,,,328.2105390409997,328.24322216633345,328.242163291,356.3718153330001,356.37313745799975,356.3945981249999,356.6242306250001,356.6242306250001,357.82382158300015,358.5348225829998,9.975,1.4043867499999578,1,[0.7202406249998603],[0.7202431670002625],,,,,,,,,,,,,,358.5352792909998,361.07919970800003,0,,,1,2.5349535000000287,2.5349559999999656,0,,,0,,,,,,,,,,,325.79767887499975,325.8053285000001,325.8053285000001,325.8053285000001,328.21034633299996,1,[2.4109215409998797],[2.410924290999901],,,,,,,,,,,,p_3,001,2024-03-11_13h22.04.588,speech_rate,2023.2.3,None,2024-03-11 13h28.11.640394 -0700,
,Someday_52_condition-4x.wav,Someday__Someday__Maybe__Unabridged___File_026_of_116_0.wav,She takes a deep breath and narrows her eyes and says slowly and deliberately I won't until I get something on my favorite show Law and Order You've never been on Law and Order I say surprised but you're perfect for it I know I'm even Irish and Italian Who knows cops and criminals better So why You haven't auditioned for them or People known for being on the most ridiculed talking animals show of the last decade sometimes have a hard time being taken seriously,What show does Dina want to get a role on?,A. "Law and Order",B. "There's Pierre",C. The talking animals show,D. A show about Irish and Italian people,A. "Law and Order",no,7.215,,,,,,,,,,,,,0,4,4,4,,,,,,,,,361.08673337499977,,,,,,,,,,,,363.7292172909997,363.74523112466636,363.7421455409999,370.9560510000001,370.96629666599983,370.9774860829998,371.18179787500003,371.18179787500003,372.5403189999997,373.5799659579998,2.166666666666667,1.9631212919998688,1,[1.0495737080000254],[1.04957608299992],,,,,,,,,,,,,,373.58043233299986,384.509288833,1,10.918555792000006,10.918558708999626,0,,,0,,,0,,,,,,,,,,,361.0796450409998,361.08673337499977,361.08673337499977,361.08673337499977,363.7290317080001,1,[2.6477344580002864],[2.647736917000202],,,,,,,,,,,,p_3,001,2024-03-11_13h22.04.588,speech_rate,2023.2.3,None,2024-03-11 13h28.11.640394 -0700,
,Someday_75_condition-2-5x.wav,Someday__Someday__Maybe__Unabridged___File_035_of_116_3.wav,He doesn't have the greatest sense of his own volume He never raises his voice to people intentionally but he's always loud He says volume is his trademark and the community respects him for it Francis Banks he says again Great name a classic You can bank on banks I can see the headline in the Hollywood Reporter He takes a deep rattly breath which he seems to have to do any time he strings more than two sentences together His breathing is labored and like his voice astonishingly loud A classy name for a classy gal Look at you,How is Barney Sparks' sense of volume described?,A. Quiet and reserved,B. Loud and unintentional,C. Moderate and controlled,D. Variable and unpredictable,B. Loud and unintentional,no,14.249375,,,,,,,,,,,,,0,5,5,5,,,,,,,,,384.52273916600006,,,,,,,,,,,,386.9972493330001,387.0132583746665,387.0182177500001,401.2606712080001,401.27519433299994,401.29650025,401.498507625,401.498507625,403.3923789579999,403.8970811250001,6.6,2.0713317499998993,1,[0.5137871670003733],[0.5137895000002572],,,,,,,,,,,,,,403.89751024999987,408.23434987500013,0,,,1,4.327257625000129,4.327260500000193,0,,,0,,,,,,,,,,,384.5098308329998,384.52273916600006,384.52273916600006,384.52273916600006,386.997046166,1,[2.4867823749996205],[2.4867850419996103],,,,,,,,,,,,p_3,001,2024-03-11_13h22.04.588,speech_rate,2023.2.3,None,2024-03-11 13h28.11.640394 -0700,
,Someday_97_condition-3x.wav,Someday__Someday__Maybe__Unabridged___File_043_of_116_0.wav,Yes Aren't you going to ask me about my show What Yes I'm sorry tell me Well I'm pretty excited actually I just got booked to do my one man show Insights in the basement of Hooligans Hooligans that's great Where is that again You know the Irish bar on Second Avenue it has the basement where Claudia did her poetry reading Oh yeah that Hooligans yeah such a great space,Where will the one-man show be performed?,A. In a theater on Broadway,B. In the basement of an Irish bar,C. At Claudia's poetry reading,D. In a small town in Connecticut,B. In the basement of an Irish bar,no,10.8,,,,,,,,,,,,,0,6,6,6,,,,,,,,,408.24272729099994,,,,,,,,,,,,410.46522966600014,410.48125683266676,410.48273066599995,421.27587245799987,421.29354116600007,421.3048390409999,421.5116606659999,421.5116606659999,423.02592779099996,423.64916700000003,7.075,1.696226917000331,1,[0.6329503329998261],[0.6329527499997312],,,,,,,,,,,,,,423.6496296659998,425.961808,0,,,1,2.303012458000012,2.3030157499997586,0,,,0,,,,,,,,,,,408.23487420799984,408.24272729099994,408.24272729099994,408.24272729099994,410.46504275000007,1,[2.2282052499999736],[2.228207832999942],,,,,,,,,,,,p_3,001,2024-03-11_13h22.04.588,speech_rate,2023.2.3,None,2024-03-11 13h28.11.640394 -0700,
,Someday_74_condition-2x.wav,Someday__Someday__Maybe__Unabridged___File_035_of_116_2.wav,Barney wears a light blue sport coat and has thick white hair cropped very close to his head The whole place smells like cigar smoke and dust but there's something comforting about it I'm afraid my nervousness is obvious especially when I discover that the only way to sit in the one huge armchair opposite his desk is to sink into it and be swallowed I fight the chair for a minute trying to perch daintily on the edge and then give up and sit back which at least might make me look relaxed Francis Banks Barney Bellows,What is Barney Sparks wearing when the main character meets him?,A. A black tuxedo,B. A light blue sport coat,C. A red sweater,D. A white lab coat,B. A light blue sport coat,no,14.87,,,,,,,,,,,,,0,7,7,7,,,,,,,,,425.97533891600006,,,,,,,,,,,,428.1346900829999,428.1507083746667,428.15439549999974,443.02692345800006,443.0294577909999,443.0400486660001,443.2438805409997,443.2438805409997,444.69254275000003,446.082634416,8.266666666666666,1.62361541700011,1,[1.4037226659997941],[1.4037249580001117],,,,,,,,,,,,,,446.0830501659998,452.2680982500001,0,,,1,6.1772907500003384,6.177293916000053,0,,,0,,,,,,,,,,,425.9623630410001,425.97533891600006,425.97533891600006,425.97533891600006,428.13449845800005,1,[2.1700762499999655],[2.1700787909999235],,,,,,,,,,,,p_3,001,2024-03-11_13h22.04.588,speech_rate,2023.2.3,None,2024-03-11 13h28.11.640394 -0700,
,Someday_44_condition-2-5x.wav,Someday__Someday__Maybe__Unabridged___File_024_of_116_0.wav,It's such a talent to be able to make people laugh but God forbid you end up on something joyless and soul crushing like that show with all the nurses Hello New York The first person I spot outside the theater is Dina smoking with a few other classmates Dina is one of the older members of our class in her 40s maybe and is still sort of famous from a show she did in the 80s called There's Pierre which I remember watching all the time growing up but she never mentions it so I don't either,What show does the narrator consider joyless and soul-crushing?,A. A show about nurses,B. A show called "Hello New York",C. A show from the 80s,D. A show with Dina,A. A show about nurses,no,13.09875,,,,,,,,,,,,,0,8,8,8,,,,,,,,,452.2758516660001,,,,,,,,,,,,454.617405083,454.6334281246666,454.63569158300015,467.728030708,467.733735625,467.7443517910001,467.94867554099983,467.94867554099983,469.36185929099975,469.9238928750001,9.075,1.5928319170002396,1,[0.5717863329996362],[0.5717885409999326],,,,,,,,,,,,,,469.92433595800003,473.5352201659998,1,3.6006642500001362,3.6006665840000096,0,,,0,,,0,,,,,,,,,,,452.26854170800016,452.2758516660001,452.2758516660001,452.2758516660001,454.61721758299973,1,[2.348283750000064],[2.3482863750000433],,,,,,,,,,,,p_3,001,2024-03-11_13h22.04.588,speech_rate,2023.2.3,None,2024-03-11 13h28.11.640394 -0700,
,Someday_57_condition.wav,Someday__Someday__Maybe__Unabridged___File_027_of_116_5.wav,I imagine being in the cast of that show and having to listen to people talk about the chandelier as their favorite part I don't know how to respond Then I remember that Everett said she had a meeting the next day I uh just found out tonight actually that I'm going to have some meetings with agents I say trying to bridge the gap Oh meetings she says like some people might say Oh ice cream or oh free diamonds Yep I'm going to have two of them actually,What does the narrator fantasize about while talking to Everett?,A. Being a famous actress,B. Being in the cast of a show,C. Traveling the world,D. Writing a novel,B. Being in the cast of a show,no,28.89996875,,,,,,,,,,,,,0,9,9,9,,,,,,,,,473.5437365829998,,,,,,,,,,,,475.166976083,475.21592783299985,475.20604925,504.10262729099986,504.11751812500006,504.1389170409998,504.350299791,504.350299791,505.84878254099976,506.48524895799983,9.875,1.6851148339997053,1,[0.6456337079998775],[0.6456361249997826],,,,,,,,,,,,,,506.48569391599995,511.8207887499998,1,5.326443709000159,5.3264461670000856,0,,,0,,,0,,,,,,,,,,,473.53566083299984,473.5437365829998,473.5437365829998,473.5437365829998,475.166746333,1,[1.6294166249999762],[1.6294193749999977],,,,,,,,,,,,p_3,001,2024-03-11_13h22.04.588,speech_rate,2023.2.3,None,2024-03-11 13h28.11.640394 -0700,
,Someday_67_condition.wav,Someday__Someday__Maybe__Unabridged___File_033_of_116_1.wav,Well I'm doing all right I guess I imagine myself saying but I'm about three inches from where I really want to be I think of how much effort has taken me to even be a 29 I can't imagine what else I could do to be a 26 but it makes sense too that the Cordelia Biscaynes of the world are literally measurably different from the rest of us Three inches might as well be 300 to me today Hi I'm Carol,What size does the narrator wear?,A. 29,B. 26,C. 30,D. 28,A. 29,no,29.22,,,,,,,,,,,,,0,10,10,10,,,,,,,,,511.829289625,,,,,,,,,,,,514.3543825829997,514.403713083,514.3945281249999,543.6043154999998,543.6340435829998,543.6556445000001,543.855183916,543.855183916,547.0149121660002,547.7437117079999,10,3.3315145840001605,1,[0.7415405420001662],[0.7415427500000078],,,,,,,,,,,,,,547.7441665410001,553.1067518330001,1,5.355445958000018,5.355448916000114,0,,,0,,,0,,,,,,,,,,,511.8212463330001,511.829289625,511.829289625,511.829289625,514.3541917909997,1,[2.531218708000324],[2.5312216250003985],,,,,,,,,,,,p_3,001,2024-03-11_13h22.04.588,speech_rate,2023.2.3,None,2024-03-11 13h28.11.640394 -0700,
,Someday_79_condition-3x.wav,Someday__Someday__Maybe__Unabridged___File_036_of_116_1.wav,But something is holding me back It would be so easy to say yes and leave this room with an agent almost too easy I Look around the room and the walls of old scripts and playbills that seemed warm and friendly when I first came in Now look cluttered and shabby the leather on the arms of this giant lumpy chair is worn thin The stuffing is peeking through one of the seams and the sunlight streaming through the window is cloudy with dust I stammer a bit,What is one of the factors that is preventing the narrator from immediately accepting the agent's offer?,A. The agent's appearance,B. The condition of the room,C. The agent's attitude,D. The lack of other actors,B. The condition of the room,no,10.66875,,,,,,,,,,,,,0,11,11,11,,,,,,,,,553.115003291,,,,,,,,,,,,556.1233459159998,556.1393679996665,556.1398049999998,566.8172375409999,566.8185739579999,566.8404785409998,567.0413476250001,567.0413476250001,568.6152846249997,569.1397004579999,8.108333333333333,1.7464804589999403,1,[0.5348172090002663],[0.5348195840001608],,,,,,,,,,,,,,569.1401234579998,573.4084347079997,0,,,1,4.259262875000331,4.259265417000279,0,,,0,,,,,,,,,,,553.107213625,553.115003291,553.115003291,553.115003291,556.123160958,1,[3.0155424999998104],[3.0155451249997896],,,,,,,,,,,,p_3,001,2024-03-11_13h22.04.588,speech_rate,2023.2.3,None,2024-03-11 13h28.11.640394 -0700,
,Someday_66_condition.wav,Someday__Someday__Maybe__Unabridged___File_032_of_116_1.wav,These are perfect Let's Polaroid these two we might have to cut them in the back though She says you guys really shouldn't fudge your sizes you know she attempts a smile but I can tell she's irritated I Didn't fudge my sizes I say as nicely as I can at least I don't think I did Well what jean size did you give them Eight maybe in inches I mean I'm not sure I didn't know they made pants in sizes like that,What does the woman suggest regarding jeans sizes?,A. The narrator should not fudge her size,B. The narrator should avoid mentioning her size,C. Sizes like eight inches don't exist,D. Smiles are essential for jeans fittings,A. The narrator should not fudge her size,no,28.64,,,,,,,,,,,,,0,12,12,12,,,,,,,,,573.4158603749997,,,,,,,,,,,,574.5075871660001,574.5402925413332,574.5385797909998,603.186038541,603.187502791,603.2088088750002,603.4106442500001,603.4106442500001,607.70187575,608.1808285829998,9.975,4.46476708299997,1,[0.49196166699994137],[0.491963874999783],,,,,,,,,,,,,,608.1812530409998,615.1109457080001,1,6.920847249999952,6.920849457999793,0,,,0,,,0,,,,,,,,,,,573.4088792909997,573.4158603749997,573.4158603749997,573.4158603749997,574.5074034999998,1,[1.096838082999966],[1.0968407079999452],,,,,,,,,,,,p_3,001,2024-03-11_13h22.04.588,speech_rate,2023.2.3,None,2024-03-11 13h28.11.640394 -0700,
,Someday_121_condition-2-5x.wav,Someday__Someday__Maybe__Unabridged___File_054_of_116_1.wav,A lot of the shows have weight loss advice which is where I got the great cabbage soup diet which would have worked I'm sure if only I didn't hate cabbage She has celebrities on too and people who've overcome daunting odds of various kinds And I never know when I'll have to play a character who isn't close to me but might remind me of someone I saw on Lisa So really you could call the time I spend with Lisa almost educational But the thing is Pine Tree Lodge the soap opera is on right after that,What soap opera does the narrator watch after Lisa's program?,A. Steel Entrapment,B. Pine Tree Lodge,C. Kill Time,D. When Harry Met Sally,B. Pine Tree Lodge,yes,12.95,,,,,,,,,,,,,0,13,13,13,0,0,0,0,0,0,0,0,635.4053882499998,,,,,,,,,,,,617.0269001659999,617.0429327076665,617.0450746249999,629.9873714579999,629.994162125,630.0053580829999,630.2132999579999,630.2132999579999,631.6025561659999,632.3496487909997,7.991666666666667,1.5718005830003676,1,[0.7572596670001985],[0.7572619170000507],,,,,,,,,,635.3959277499998,635.4053882499998,650.389285666,lisa pine tree lodge spending time with someone there's also a soap opera involved,,,,,,,,,,,,,,,650.4088287909999,,,,,,,,615.1113987079998,615.1178857909999,615.1178857909999,615.1178857909999,617.0267155829997,1,[1.9136515000000145],[1.9136541670000042],632.3501666249999,632.3560891249999,632.3560891249999,632.3560891249999,635.3951145830001,1,[3.0441823750002186],[3.044184917000166],0,,,p_3,001,2024-03-11_13h22.04.588,speech_rate,2023.2.3,None,2024-03-11 13h28.11.640394 -0700,
,Someday_121_condition-2-5x.wav,Someday__Someday__Maybe__Unabridged___File_054_of_116_1.wav,A lot of the shows have weight loss advice which is where I got the great cabbage soup diet which would have worked I'm sure if only I didn't hate cabbage She has celebrities on too and people who've overcome daunting odds of various kinds And I never know when I'll have to play a character who isn't close to me but might remind me of someone I saw on Lisa So really you could call the time I spend with Lisa almost educational But the thing is Pine Tree Lodge the soap opera is on right after that,What soap opera does the narrator watch after Lisa's program?,A. Steel Entrapment,B. Pine Tree Lodge,C. Kill Time,D. When Harry Met Sally,B. Pine Tree Lodge,yes,12.95,,,,,,,,,,,,,0,13,13,13,0,0,0,0,,,,,,,,,,,,,,,,,,,,,,,,,,,,,,,,,,,,,,,,,,,,,,,,,,,,,,,,,,,,,,,,,,,,,,,,,,,,,,,,,,,,,,p_3,001,2024-03-11_13h22.04.588,speech_rate,2023.2.3,None,2024-03-11 13h28.11.640394 -0700,
,Someday_121_condition-2-5x.wav,Someday__Someday__Maybe__Unabridged___File_054_of_116_1.wav,A lot of the shows have weight loss advice which is where I got the great cabbage soup diet which would have worked I'm sure if only I didn't hate cabbage She has celebrities on too and people who've overcome daunting odds of various kinds And I never know when I'll have to play a character who isn't close to me but might remind me of someone I saw on Lisa So really you could call the time I spend with Lisa almost educational But the thing is Pine Tree Lodge the soap opera is on right after that,What soap opera does the narrator watch after Lisa's program?,A. Steel Entrapment,B. Pine Tree Lodge,C. Kill Time,D. When Harry Met Sally,B. Pine Tree Lodge,yes,12.95,,,,,,,,,,,,,0,13,13,13,,,,,,,,,,,,,,,,,,,,,,,,,,,,,,,,,,,,,,,,,,,,,,,,,650.3895669160001,652.9417278329997,0,,,1,2.5425848750001023,2.542587625000124,0,,,0,,,,,,,,,,,,,,,,,,,,,,,,,,,,,,p_3,001,2024-03-11_13h22.04.588,speech_rate,2023.2.3,None,2024-03-11 13h28.11.640394 -0700,
,Someday_21_condition-2-5x.wav,Someday__Someday__Maybe__Unabridged___File_013_of_116_0.wav,But I guess he was like she already has an agent at Absolute and she's got two movies in the can so like you know fine just one more beanpole to deal with This is the kind of confidence you're supposed to have as an actress I think I mean I would personally never announce that I had an agent at Absolute Artists the best agency in town or talk about movies I'd done or refer to myself as a beanpole especially loudly and in a room full of people But then again in my case none of those things are TRUE,What is the narrator's stance on sharing personal accomplishments in public?,A. The narrator believes in confidently announcing her achievements,B. The narrator prefers to keep her agent and acting achievements private,C. The narrator doesn't have a strong opinion in this,D. The narrator feels it's necessary to talk loudly about her successes to gain recognition,D. The narrator feels it's necessary to talk loudly about her successes to gain recognition,no,12.884375,,,,,,,,,,,,,0,14,14,14,,,,,,,,,652.9549762500001,,,,,,,,,,,,655.1768158750001,655.2062059583332,655.1949817909999,668.0730912499998,668.0922933329998,668.103520958,668.3384984579998,668.3384984579998,669.582535,670.8620189160001,7.949999999999999,2.0970810419998998,1,[1.2882512080000197],[1.2882540000000517],,,,,,,,,,,,,,670.8624437079998,677.4664177079999,0,,,1,6.592612834000192,6.592615666999791,0,,,0,,,,,,,,,,,652.9422694999998,652.9549762500001,652.9549762500001,652.9549762500001,655.1765379160001,1,[2.233631124999647],[2.233638040999722],,,,,,,,,,,,p_3,001,2024-03-11_13h22.04.588,speech_rate,2023.2.3,None,2024-03-11 13h28.11.640394 -0700,
,Someday_23_condition-4x.wav,Someday__Someday__Maybe__Unabridged___File_014_of_116_0.wav,If you don't have any questions about the material then state your name and agency and go ahead whenever you're ready thanks so much I try to swallow but my throat is too dry This is the kind of room that's hard to do well in If they're in the mood to talk I can crack a few jokes make a small connection give myself a moment to settle down but these girls are all business I look down at the paper I'm not going to panic or ask for more time or tell them I didn't really have a chance to go over it yet I'm going to remain calm as if I'm a professional,How does the narrator plan to handle the situation in the room?,A. By making small talk and jokes,B. By panicking and asking for more time,C. By admitting she didn't prepare,D. By remaining calm and professional,D. By remaining calm and professional,no,7.325,,,,,,,,,,,,,0,15,15,15,,,,,,,,,677.4742485829997,,,,,,,,,,,,679.5153649159997,679.5313758746668,679.5281493749999,686.8465525409997,686.8586767080001,686.8699449159999,687.077394125,687.077394125,688.7726925409997,689.379678708,3.816666666666667,1.8772248750001381,1,[0.6169187909999891],[0.6169212079998942],,,,,,,,,,,,,,689.3801345409997,694.0654857499999,1,4.676351792000332,4.676354167000227,0,,,0,,,0,,,,,,,,,,,677.4669678750001,677.4742485829997,677.4742485829997,677.4742485829997,679.5151767500001,1,[2.0466596660003233],[2.0466622500002813],,,,,,,,,,,,p_3,001,2024-03-11_13h22.04.588,speech_rate,2023.2.3,None,2024-03-11 13h28.11.640394 -0700,
,Someday_24_condition-2-5x.wav,Someday__Someday__Maybe__Unabridged___File_015_of_116_0.wav,Thanks I say and then for no reason Any adjustments Stupid stupid Don't ask to do it again when you don't know what you did in the first place They both cock their heads at the same angle like two puppies in a pet store window Then they nod to each other again Sure yeah let's do one more just for kicks Yeah I mean that was great but let's in this one really have fun with it but also take it seriously like you did Yeah serious but fun like you're talking to your best friend Yeah like you're sharing a secret with your best friend,What do the casting directors suggest after the narrator's audition?,A. They compliment her performance,B. They ask her to do it in a more fun but serious way,C. They reject her immediately,D. They offer her the role,B. They ask her to do it in a more fun but serious way,no,13.08125,,,,,,,,,,,,,0,16,16,16,,,,,,,,,694.0722931659998,,,,,,,,,,,,695.433345083,695.4493176666667,695.4520519580001,708.541879458,708.54334075,708.5651417079998,708.7674216659998,708.7674216659998,710.3926926660001,710.9971422499998,6.566666666666666,1.8033316669998385,1,[0.6135882080002375],[0.6135907080001743],,,,,,,,,,,,,,710.997547041,716.042779458,0,,,1,5.0362490410002465,5.036251791000268,0,,,0,,,,,,,,,,,694.0659409999998,694.0722931659998,694.0722931659998,694.0722931659998,695.4331591249997,1,[1.3658616249999795],[1.3658643329999904],,,,,,,,,,,,p_3,001,2024-03-11_13h22.04.588,speech_rate,2023.2.3,None,2024-03-11 13h28.11.640394 -0700,
,Someday_82_condition-4x.wav,Someday__Someday__Maybe__Unabridged___File_037_of_116_3.wav,The end Huh I say baffled The end is supposed to show that he's come to terms with who he is It's supposed to show he's been healed Huh I say again I know Fellini can be abstract Dan says eyes gleaming Watch it with me from the beginning sometime I will I smile back at him noticing for the first time the flecks of green in his brown eyes The room seems too dark and quiet suddenly,What color are Dan's eyes,A. Blue with green flecks,B. Deep brown,C. Brown with green flecks,D. Dark green with brown flecks,C. Brown with green flecks,no,7.8025,,,,,,,,,,,,,0,17,17,17,,,,,,,,,716.0492225829998,,,,,,,,,,,,718.1661739159999,718.1821383746667,718.1802994579998,725.9763478330001,725.9858451249997,725.997067458,726.20167975,726.20167975,727.4820359999999,728.4208668749998,4.341666666666667,1.4600808329996653,1,[0.9483833750000485],[0.9483859160000065],,,,,,,,,,,,,,728.421289166,736.4336104999998,0,,,1,8.005028709000271,8.005031625000356,0,,,0,,,,,,,,,,,716.0433296249998,716.0492225829998,716.0492225829998,716.0492225829998,718.1659905410002,1,[2.1220329170000696],[2.1220356250000805],,,,,,,,,,,,p_3,001,2024-03-11_13h22.04.588,speech_rate,2023.2.3,None,2024-03-11 13h28.11.640394 -0700,
,Someday_33_condition-3x.wav,Someday__Someday__Maybe__Unabridged___File_018_of_116_2.wav,Well I wouldn't say I'd be amazing in it although thanks for saying so I think I'd just be okay in it I mean it is sort of right in my wheelhouse but I think you'd actually be great in it I'm serious I mean I could do it I guess and I probably would do it if they asked but I think my problem with it isn't the play itself but the guy who's in it now What's his name Anyway it doesn't matter I just think he's not really acting so much as just smoldering or something up there and I'm like buddy you can't just play every scene sexy I mean that's not an active choice,What issue does the narrator have with the actor currently in the play?,A. She thinks he's too active,B. She believes he's too serious,C. She thinks he's smoldering too much,D. She has no issue with him,C. She thinks he's smoldering too much,yes,11.45625,,,,,,,,,,,,,0,18,18,18,0,0,0,0,0,0,0,0,755.0455480410001,,,,,,,,,,,,737.66888875,737.6848032496666,737.685208291,749.1307753329997,749.1451239160001,749.1553355000001,749.3643668330001,749.3643668330001,752.7264234159998,753.3062137500001,7.166666666666666,3.531250292000095,1,[0.6047182920001433],[0.6047206670000378],,,,,,,,,,755.0359630409998,755.0455480410001,770.0300889579999,can't play every scene smoldering and sexy that's an acting choice that is made,,,,,,,,,,,,,,,770.0498828750001,,,,,,,,736.4340644999997,736.442082041,736.442082041,736.442082041,737.6686989999998,1,[1.2332371249999596],[1.2332396249998965],753.306705,753.312369541,753.312369541,753.312369541,755.03517775,1,[1.727727916999811],[1.7277305839998007],0,,,p_3,001,2024-03-11_13h22.04.588,speech_rate,2023.2.3,None,2024-03-11 13h28.11.640394 -0700,
,Someday_33_condition-3x.wav,Someday__Someday__Maybe__Unabridged___File_018_of_116_2.wav,Well I wouldn't say I'd be amazing in it although thanks for saying so I think I'd just be okay in it I mean it is sort of right in my wheelhouse but I think you'd actually be great in it I'm serious I mean I could do it I guess and I probably would do it if they asked but I think my problem with it isn't the play itself but the guy who's in it now What's his name Anyway it doesn't matter I just think he's not really acting so much as just smoldering or something up there and I'm like buddy you can't just play every scene sexy I mean that's not an active choice,What issue does the narrator have with the actor currently in the play?,A. She thinks he's too active,B. She believes he's too serious,C. She thinks he's smoldering too much,D. She has no issue with him,C. She thinks he's smoldering too much,yes,11.45625,,,,,,,,,,,,,0,18,18,18,0,0,0,0,,,,,,,,,,,,,,,,,,,,,,,,,,,,,,,,,,,,,,,,,,,,,,,,,,,,,,,,,,,,,,,,,,,,,,,,,,,,,,,,,,,,,,p_3,001,2024-03-11_13h22.04.588,speech_rate,2023.2.3,None,2024-03-11 13h28.11.640394 -0700,
,Someday_33_condition-3x.wav,Someday__Someday__Maybe__Unabridged___File_018_of_116_2.wav,Well I wouldn't say I'd be amazing in it although thanks for saying so I think I'd just be okay in it I mean it is sort of right in my wheelhouse but I think you'd actually be great in it I'm serious I mean I could do it I guess and I probably would do it if they asked but I think my problem with it isn't the play itself but the guy who's in it now What's his name Anyway it doesn't matter I just think he's not really acting so much as just smoldering or something up there and I'm like buddy you can't just play every scene sexy I mean that's not an active choice,What issue does the narrator have with the actor currently in the play?,A. She thinks he's too active,B. She believes he's too serious,C. She thinks he's smoldering too much,D. She has no issue with him,C. She thinks he's smoldering too much,yes,11.45625,,,,,,,,,,,,,0,18,18,18,,,,,,,,,,,,,,,,,,,,,,,,,,,,,,,,,,,,,,,,,,,,,,,,,770.030388875,772.4791086249998,0,,,0,,,1,2.4391225839999606,2.4391254590000244,0,,,,,,,,,,,,,,,,,,,,,,,,,,,,,,p_3,001,2024-03-11_13h22.04.588,speech_rate,2023.2.3,None,2024-03-11 13h28.11.640394 -0700,
,Someday_26_condition-3x.wav,Someday__Someday__Maybe__Unabridged___File_015_of_116_2.wav,My stomach lurches The action between each line is the exact opposite of what the line is After kids are my number one priority it says rushing mom gets daughter to school just as the bell is ringing After the thing about always having time for friends looks at answering machine guiltily and decides to screen the call At the end the harried housewife stuffs an impossible amount of dirty clothes in the washer which miraculously come out clean and she gets a huge hug from her approving husband,What is the narrator's reaction to the script she's reading?,A. Her stomach lurches,B. She finds it amusing,C. She feels inspired,D. She is moved to tears,A. Her stomach lurches,no,10.45875,,,,,,,,,,,,,0,19,19,19,,,,,,,,,772.4864133329997,,,,,,,,,,,,774.4023899579997,774.4183956246668,774.417023125,784.8798664579999,784.8819910829998,784.8932023749999,785.1278944579999,785.1278944579999,786.4631926659999,787.0679915000001,6.191666666666666,1.5452910839999277,1,[0.6144080839999333],[0.6144102920002297],,,,,,,,,,,,,,787.0684193749998,792.4038276659999,0,,,0,,,1,5.327365500000269,5.327367958000195,0,,,,,,,,,,,772.4796670000001,772.4864133329997,772.4864133329997,772.4864133329997,774.4021872909998,1,[1.9210304579996773],[1.921032958000069],,,,,,,,,,,,p_3,001,2024-03-11_13h22.04.588,speech_rate,2023.2.3,None,2024-03-11 13h28.11.640394 -0700,
,Someday_114_condition-3-5x.wav,Someday__Someday__Maybe__Unabridged___File_051_of_116_0.wav,You know in general for show business I think that's why I'm not getting any calls from the agency What do you think is the right way to look You know more like these girls on still nursing I gesture toward the television where a buxom blonde in a short skirt and open doctor's coat is struggling to reattach the IV of an elderly male patient by straddling his hospital bed accidentally smothering him with her cleavage The studio audience screams with laughter,What TV show does the narrator reference in their conversation about appearances?,A. A cooking show,B. A crime show,C. A sitcom called "Still Nursing",D. A reality show,C. A sitcom called "Still Nursing",no,8.9625,,,,,,,,,,,,,0,20,20,20,,,,,,,,,792.4117979580001,,,,,,,,,,,,793.136866458,793.1528313746664,793.1516418749998,802.113688375,802.1174260829998,802.1287199160001,802.3333466660001,802.3333466660001,803.756939416,804.4198444160002,6.125,1.6014083750001191,1,[0.6720591250000325],[0.6720614169998953],,,,,,,,,,,,,,804.4202437079998,807.304907708,0,,,0,,,1,2.8766029169996727,2.876605292000022,0,,,,,,,,,,,792.404284833,792.4117979580001,792.4117979580001,792.4117979580001,793.136686583,1,[0.7319344160000583],[0.7319372910001221],,,,,,,,,,,,p_3,001,2024-03-11_13h22.04.588,speech_rate,2023.2.3,None,2024-03-11 13h28.11.640394 -0700,
,Someday_58_condition-3-5x.wav,Someday__Someday__Maybe__Unabridged___File_028_of_116_0.wav,Her profile is sharp her whole body a series of angles that have somehow Improbably folded themselves on their hinges into the soft chair There's something so regal and linear about her I can't imagine her ever collapsing into giggles or crying hysterically She's taking her time to consider what to say next in a way that suggests she's used to people waiting for her I wonder what that's like to never worry about filling the silence Her eyes eventually float back to me,How does the narrator describe the woman's profile?,A. Sharp,B. Round,C. Regal,D. Hysterical,A. Sharp,no,9.15,,,,,,,,,,,,,0,21,21,21,,,,,,,,,807.3121152909998,,,,,,,,,,,,808.181390666,808.1974217496665,808.196129208,817.332387125,817.3500961249997,817.3612147909998,817.5677436249998,817.5677436249998,819.7418547500001,820.4201390409999,4.25,2.352928625000004,1,[0.6875806250000096],[0.6875827499998195],,,,,,,,,,,,,,820.4205484999998,824.8392650830001,0,,,0,,,1,4.411724125000092,4.411726583000018,0,,,,,,,,,,,807.3053725,807.3121152909998,807.3121152909998,807.3121152909998,808.1812114579998,1,[0.8745257079999647],[0.8745283749999544],,,,,,,,,,,,p_3,001,2024-03-11_13h22.04.588,speech_rate,2023.2.3,None,2024-03-11 13h28.11.640394 -0700,
,Someday_89_condition-2-5x.wav,Someday__Someday__Maybe__Unabridged___File_039_of_116_2.wav,Excuse me can you tell me what day of the week it is they'll say and laugh I'm leaning awkwardly against the wall near the door not sure what to do while I wait Maybe I should sit Plenty of people use sitting as a way to pass the time I look at the giant table and multitude of chairs Unless a bunch of people are going to join us this seems a strange room to choose for a meeting of two Yes I think I'll sit But I'm not sure which spot to choose I'm not totally sure I even want to sit yet,Why does the narrator feel uncertain about sitting in the room?,A. She is worried about her outfit,B. She doesn't know which chair to choose,C. She perefers to stand,D. She has somewhere else to be,B. She doesn't know which chair to choose,no,12.57375,,,,,,,,,,,,,0,22,22,22,,,,,,,,,824.8464583750001,,,,,,,,,,,,825.60503625,825.6210270826666,825.6222733750001,838.1995308749997,838.2014869999998,838.212720041,838.4168810410001,838.4168810410001,839.4665367500002,840.0284756249998,7.125,1.229306749999978,1,[0.5713325840001744],[0.5713355840002805],,,,,,,,,,,,,,840.028966583,844.2237963749999,0,,,0,,,1,4.186061124999924,4.186063665999882,0,,,,,,,,,,,824.8397127499998,824.8464583750001,824.8464583750001,824.8464583750001,825.6048580409997,1,[0.7638134169997102],[0.7638160000001335],,,,,,,,,,,,p_3,001,2024-03-11_13h22.04.588,speech_rate,2023.2.3,None,2024-03-11 13h28.11.640394 -0700,
,Someday_101_condition-2x.wav,Someday__Someday__Maybe__Unabridged___File_044_of_116_3.wav,Okay great I say too forcefully So should I do it into the camera or I'm looking around vacantly not sure where to focus somehow not finding where the lens is Ah there's no camera here today since there's no scene exactly Tell you what why don't you just do it for Arthur here he says pointing to a painfully thin man with red hair and freckles to his left who looks not exactly happy to have been chosen as my target Okay great,Why won't the narrator have to perform in front of a camera during the audition?,A. Because there is no camera available,B. Because the scene doesn't require it,C. Because Arthur will perform it instead,D. Because the narrator refused to do it,B. Because the scene doesn't require it,no,14.87,,,,,,,,,,,,,0,23,23,23,,,,,,,,,844.2316099999998,,,,,,,,,,,,845.4374312909999,845.4670054583335,845.459012583,860.334098708,860.3390037909999,860.3502351249999,860.5541545410001,860.5541545410001,862.3160585830001,863.2616899579998,7.949999999999999,1.9376224590000675,1,[0.9582683749999887],[0.9582710839999891],,,,,,,,,,,,,,863.262099041,869.1079088329998,0,,,1,5.835911666999891,5.835914124999817,0,,,0,,,,,,,,,,,844.2242241660001,844.2316099999998,844.2316099999998,844.2316099999998,845.437187083,1,[1.2123456660001466],[1.2123522500000945],,,,,,,,,,,,p_3,001,2024-03-11_13h22.04.588,speech_rate,2023.2.3,None,2024-03-11 13h28.11.640394 -0700,
,Someday_138_condition-4x.wav,Someday__Someday__Maybe__Unabridged___File_080_of_116_1.wav,"The page is practically touching his glasses, so I can't exactly see his reaction. Dan, I say, what do you think? I mean, the script isn't too terrible, right? I was distracted by having to read it out loud, Dan says, a bit grumpy. But you're not the actor we're paying attention to in this scene, Dan, Jane tells him. Then, trying to help, she says, come on, be a pal. Say something nice to Franny about her new job. Dan thinks for a second, then says, the dialogue isn't bad, although too many sentences start with well.",Why is Dan grumpy?,A. Because he is hungry,B. Because he doesn't like reading,C. Because he has to read out loud,D. Because he doesn't have enough time to help the narrator,C. Because he has to read out loud,yes,8.1816875,,,,,,,,,,,,,0,24,24,24,0,0,0,0,0,0,0,0,888.220248916,,,,,,,,,,,,870.9247915410001,870.9407961666664,870.9389778750001,879.1278257079998,879.1287819999998,879.1399634999998,879.3442955,879.3442955,881.4176001659998,881.9633398749997,2.2333333333333334,2.2499558329996034,1,[0.5585985839998102],[0.5586007499996413],,,,,,,,,,888.210714541,888.220248916,903.20366375,something about the scene and needing help,,,,,,,,,,,,,,,903.222864458,,,,,,,,869.1083375409999,869.1163474999998,869.1163474999998,869.1163474999998,870.9245944579998,1,[1.8149067089998425],[1.814909458999864],881.9638680409998,881.9693905409999,881.9693905409999,881.9693905409999,888.2098223749999,1,[6.245206542000233],[6.245209708999937],0,,,p_3,001,2024-03-11_13h22.04.588,speech_rate,2023.2.3,None,2024-03-11 13h28.11.640394 -0700,
,Someday_138_condition-4x.wav,Someday__Someday__Maybe__Unabridged___File_080_of_116_1.wav,"The page is practically touching his glasses, so I can't exactly see his reaction. Dan, I say, what do you think? I mean, the script isn't too terrible, right? I was distracted by having to read it out loud, Dan says, a bit grumpy. But you're not the actor we're paying attention to in this scene, Dan, Jane tells him. Then, trying to help, she says, come on, be a pal. Say something nice to Franny about her new job. Dan thinks for a second, then says, the dialogue isn't bad, although too many sentences start with well.",Why is Dan grumpy?,A. Because he is hungry,B. Because he doesn't like reading,C. Because he has to read out loud,D. Because he doesn't have enough time to help the narrator,C. Because he has to read out loud,yes,8.1816875,,,,,,,,,,,,,0,24,24,24,0,0,0,0,,,,,,,,,,,,,,,,,,,,,,,,,,,,,,,,,,,,,,,,,,,,,,,,,,,,,,,,,,,,,,,,,,,,,,,,,,,,,,,,,,,,,,p_3,001,2024-03-11_13h22.04.588,speech_rate,2023.2.3,None,2024-03-11 13h28.11.640394 -0700,
,Someday_138_condition-4x.wav,Someday__Someday__Maybe__Unabridged___File_080_of_116_1.wav,"The page is practically touching his glasses, so I can't exactly see his reaction. Dan, I say, what do you think? I mean, the script isn't too terrible, right? I was distracted by having to read it out loud, Dan says, a bit grumpy. But you're not the actor we're paying attention to in this scene, Dan, Jane tells him. Then, trying to help, she says, come on, be a pal. Say something nice to Franny about her new job. Dan thinks for a second, then says, the dialogue isn't bad, although too many sentences start with well.",Why is Dan grumpy?,A. Because he is hungry,B. Because he doesn't like reading,C. Because he has to read out loud,D. Because he doesn't have enough time to help the narrator,C. Because he has to read out loud,yes,8.1816875,,,,,,,,,,,,,0,24,24,24,,,,,,,,,,,,,,,,,,,,,,,,,,,,,,,,,,,,,,,,,,,,,,,,,903.203937625,910.3139619579997,0,,,0,,,0,,,1,7.1008049160000155,7.100808499999857,,,,,,,,,,,,,,,,,,,,,,,,,,,,p_3,001,2024-03-11_13h22.04.588,speech_rate,2023.2.3,None,2024-03-11 13h28.11.640394 -0700,
,Someday_14_condition-4x.wav,Someday__Someday__Maybe__Unabridged___File_009_of_116_2.wav,Jane grew up in Greenwich Village in Manhattan and has style Where I struggle to match a black shirt with black pants she throws on jeans and a t shirt and nine chunky cuffs on one wrist with an air that says so I dare you to not find this cool She shops at Century 21 and Boltons and second hand stores and somehow makes it all look expensive Wait Jane Levine you are not just getting home are you I ask peeking into one of the brown bags Can they do that to you,Where did Jane grow up in?,A. Williamsburg,B. Greenwich Village,C. SoHo,D. Queens,B. Greenwich Village,no,7.04,,,,,,,,,,,,,0,25,25,25,,,,,,,,,910.3218300829999,,,,,,,,,,,,911.960393291,911.9764132496664,911.9723247080001,919.0066067079997,919.02181475,919.0330341660001,919.2698733749999,919.2698733749999,920.5365396249999,921.1483129160001,1.7583333333333333,1.4751660839997385,1,[0.625130624999656],[0.6251329579999947],,,,,,,,,,,,,,921.1487274159999,924.1610809159997,0,,,0,,,0,,,1,3.00489883299997,3.0049012909998964,,,,,,,,,910.3145542080001,910.3218300829999,910.3218300829999,910.3218300829999,911.960207916,1,[1.643889333000061],[1.6438918329999979],,,,,,,,,,,,p_3,001,2024-03-11_13h22.04.588,speech_rate,2023.2.3,None,2024-03-11 13h28.11.640394 -0700,
,Someday_116_condition-2x.wav,Someday__Someday__Maybe__Unabridged___File_052_of_116_0.wav,Yes I noticed that this may come as a shock to you But many studies have shown there's at least a slight nutritional difference between spinach that's rotting in the crisper drawer and spinach That's ingested into the body Details I scoff I give up she says heading for the kitchen more coffee I Stare down at my bagel which seems to I me warily back Maybe Jane's right Maybe I need more education I wonder what Penelope schlotzky eats on Sunday Probably not bagels,What does the narrator stare down at?,A. A bagel,B. Some spinach,C. A cup of coffee,D. A cup of tea,A. A bagel,no,14.315,,,,,,,,,,,,,0,26,26,26,,,,,,,,,924.169493291,,,,,,,,,,,,924.9611427079999,924.9771318326664,924.9807566660002,939.294854625,939.2952452499999,939.3053519579998,939.5082071249999,939.5082071249999,940.4555344999999,941.1108519159998,7.25,1.1257472090001102,1,[0.6648141249997934],[0.6648164160001215],,,,,,,,,,,,,,941.111285,942.7633484160001,1,1.645016958999804,1.6450193749997197,0,,,0,,,0,,,,,,,,,,,924.161523625,924.169493291,924.169493291,924.169493291,924.9609445830001,1,[0.7989914579998185],[0.7989939160001995],,,,,,,,,,,,p_3,001,2024-03-11_13h22.04.588,speech_rate,2023.2.3,None,2024-03-11 13h28.11.640394 -0700,
,Someday_9_condition-2x.wav,Someday__Someday__Maybe__Unabridged___File_008_of_116_1.wav,For the Stevie Nicks fan club Jane seriously say something helpful She tilted her head studying me carefully Honestly Franny all I can think of to say is you look like you work at a really great bakery in Maine I have class tonight after my audition so today I go for young mom meets acting class neutral black sweater black tights short black wool skirt and my Doc Martin Oxford lace up shoes Not super mom ish but practical for walking,What does Jane say the narrator looks like?,A. Like she works at a bakery,B. Like she is a movie star,C. Like she is a student at Oxford,D. Like she is a mom,A. Like she works at a bakery,no,15.035,,,,,,,,,,,,,0,27,27,27,,,,,,,,,942.770306208,,,,,,,,,,,,944.5642419159999,944.5967482083333,944.585781625,959.6124213749999,959.6333254159999,959.6544360829998,959.859126458,959.859126458,961.0053656249997,961.5613898329998,7.733333333333333,1.3229501659998277,1,[0.5688385830003426],[0.5688410830002795],,,,,,,,,,,,,,961.5618011249999,966.0172106659998,1,4.447347499999978,4.447350082999947,0,,,0,,,0,,,,,,,,,,,942.763796916,942.770306208,942.770306208,942.770306208,944.5640505000001,1,[1.798805375000029],[1.79880808300004],,,,,,,,,,,,p_3,001,2024-03-11_13h22.04.588,speech_rate,2023.2.3,None,2024-03-11 13h28.11.640394 -0700,
,Someday_140_condition-2x.wav,Someday__Someday__Maybe__Unabridged___File_081_of_116_2.wav,a Motown singer croons soft and low from the stereo the camera pans across the floor Sutton's sneaker Sheila's bra. We see a velvet ring box on the nightstand opened but empty We see remnants of the wrapping from Sheila's gift and as the camera moves closer to the bed We see it's a framed collage homemade simple but beautiful the word Yes repeated a hundred times in different sizes and shapes and colors She knew tonight was theirs the ring on her finger says the proposal went well,What accessory does the women wear?,A. A scrunchy,B. An engagement ring,C. A diamond necklace,D. Dangling earrings,B. An engagement ring,no,16.4716875,,,,,,,,,,,,,0,28,28,28,,,,,,,,,966.0249905000001,,,,,,,,,,,,967.9138283329999,967.9464612083334,967.9377612499998,984.4074663749998,984.4259259579999,984.437168333,984.644066333,984.644066333,986.1064933329999,986.696817125,9.633333333333333,1.6416473750000478,1,[0.6027975000001788],[0.6027998750000734],,,,,,,,,,,,,,986.6972450829999,990.0084185830001,0,,,1,3.303673500000059,3.3036761670000487,0,,,0,,,,,,,,,,,966.0177512079999,966.0249905000001,966.0249905000001,966.0249905000001,967.9136311249999,1,[1.894198250000045],[1.8942009160000453],,,,,,,,,,,,p_3,001,2024-03-11_13h22.04.588,speech_rate,2023.2.3,None,2024-03-11 13h28.11.640394 -0700,
,Someday_120_condition-4x.wav,Someday__Someday__Maybe__Unabridged___File_053_of_116_2.wav,Everything you need is in each packet so it takes the guesswork out of dieting You sound like you've joined a cult What happens when you have to go back to the real world the world where you have to think for yourself Hopefully I'll be so weak and frail that food will have lost its appeal entirely Great plan And who's on Lisa today I'm pretty sure today's show is Women Who Wish Their Best Friends Would Stop Judging Them Har har I'm going to work now Do you want me to take the TV cord with me,"What topic is discussed on Lisa's show, in the narrator's joke?",A. Weight loss programs,B. The challenges of dieting,C. Women's relationships with their best friends,D. The appeal of joining a cult,C. Women's relationships with their best friends,no,6.9425,,,,,,,,,,,,,0,29,29,29,,,,,,,,,990.0147052500001,,,,,,,,,,,,991.3147344579997,991.3307579576665,991.3281955829998,998.2594277079997,998.277353,998.2885890829998,998.4946755000001,998.4946755000001,1000.4742566249997,1001.0328588749999,1.1833333333333333,2.159318749999784,1,[0.5697971660001713],[0.569799625000087],,,,,,,,,,,,,,1001.033347,1003.978099375,0,,,0,,,1,2.9356015000003026,2.9356046660000175,0,,,,,,,,,,,990.0089497909998,990.0147052500001,990.0147052500001,990.0147052500001,991.3145434160001,1,[1.305157374999908],[1.3051599579998765],,,,,,,,,,,,p_3,001,2024-03-11_13h22.04.588,speech_rate,2023.2.3,None,2024-03-11 13h28.11.640394 -0700,
,Someday_126_condition.wav,Someday__Someday__Maybe__Unabridged___File_055_of_116_1.wav,What luck maybe this is going to be okay Maybe I'm not repulsive and mushy after all I'm a genius who has been in studious self imposed exile whilst honing my craft waiting for this day to come with patience and nobility It was meant to be Yes I know it I know it a little too well actually Great then just get over there as quickly as you can They're closing the session at 2 p m I'll fax you the sides and the appointment info Just call us with any questions and break a leg,What is the narrator's attitude towards her own preparation and opportunity?,A. Uncertain and self-critical about her appearance and skills,B. Confident and self-assured about the effort put into her craft,C. Indifferent and unprepared for the upcoming opportunity,D. Overwhelmed and doubtful about meeting the appointment on time,B. Confident and self-assured about the effort put into her craft,yes,28.41828125,,,,,,,,,,,,,0,30,30,30,0,0,0,0,0,0,0,0,1036.1608904159998,,,,,,,,,,,,1004.6822508750001,1004.7149114583331,1004.7128116660001,1033.126859291,1033.134108916,1033.155440291,1033.3639416249998,1033.3639416249998,1034.644465083,1035.233577125,9.758333333333333,1.4647223750002922,1,[0.5982387080002809],[0.5982409580001331],,,,,,,,,,1036.151660041,1036.1608904159998,1051.1452831249999,faxing information break a leg there is hope in having something related to acting audition or call ,,,,,,,,,,,,,,,1051.1684948329998,,,,,,,,1003.978619166,1003.991506458,1003.991506458,1003.991506458,1004.6820515,1,[0.7019487919997118],[0.7019513339996593],1035.2340965829999,1035.2428692079998,1035.2428692079998,1035.2428692079998,1036.150935958,1,[0.9160642080000798],[0.9160667080000167],0,,,p_3,001,2024-03-11_13h22.04.588,speech_rate,2023.2.3,None,2024-03-11 13h28.11.640394 -0700,
,Someday_126_condition.wav,Someday__Someday__Maybe__Unabridged___File_055_of_116_1.wav,What luck maybe this is going to be okay Maybe I'm not repulsive and mushy after all I'm a genius who has been in studious self imposed exile whilst honing my craft waiting for this day to come with patience and nobility It was meant to be Yes I know it I know it a little too well actually Great then just get over there as quickly as you can They're closing the session at 2 p m I'll fax you the sides and the appointment info Just call us with any questions and break a leg,What is the narrator's attitude towards her own preparation and opportunity?,A. Uncertain and self-critical about her appearance and skills,B. Confident and self-assured about the effort put into her craft,C. Indifferent and unprepared for the upcoming opportunity,D. Overwhelmed and doubtful about meeting the appointment on time,B. Confident and self-assured about the effort put into her craft,yes,28.41828125,,,,,,,,,,,,,0,30,30,30,0,0,0,0,,,,,,,,,,,,,,,,,,,,,,,,,,,,,,,,,,,,,,,,,,,,,,,,,,,,,,,,,,,,,,,,,,,,,,,,,,,,,,,,,,,,,,p_3,001,2024-03-11_13h22.04.588,speech_rate,2023.2.3,None,2024-03-11 13h28.11.640394 -0700,
,Someday_126_condition.wav,Someday__Someday__Maybe__Unabridged___File_055_of_116_1.wav,What luck maybe this is going to be okay Maybe I'm not repulsive and mushy after all I'm a genius who has been in studious self imposed exile whilst honing my craft waiting for this day to come with patience and nobility It was meant to be Yes I know it I know it a little too well actually Great then just get over there as quickly as you can They're closing the session at 2 p m I'll fax you the sides and the appointment info Just call us with any questions and break a leg,What is the narrator's attitude towards her own preparation and opportunity?,A. Uncertain and self-critical about her appearance and skills,B. Confident and self-assured about the effort put into her craft,C. Indifferent and unprepared for the upcoming opportunity,D. Overwhelmed and doubtful about meeting the appointment on time,B. Confident and self-assured about the effort put into her craft,yes,28.41828125,,,,,,,,,,,,,0,30,30,30,,,,,,,,,,,,,,,,,,,,,,,,,,,,,,,,,,,,,,,,,,,,,,,,,1051.1455150409997,1061.5491080829997,1,10.390079875000083,10.390082542000073,0,,,0,,,0,,,,,,,,,,,,,,,,,,,,,,,,,,,,,,p_3,001,2024-03-11_13h22.04.588,speech_rate,2023.2.3,None,2024-03-11 13h28.11.640394 -0700,
,Someday_95_condition-4x.wav,Someday__Someday__Maybe__Unabridged___File_041_of_116_2.wav,Sports God no no That's hilarious to think about I laugh picturing me and my dad who have been known to spend an entire weekend sitting in the living room reading books one after the other stopping only to eat a frozen pizza or make popcorn playing tennis or skiing or kayaking down some rapids Competitive like I always made everything a game when I was a kid I have a good memory and so does my dad so we try to stump each other like try to start reciting Jabberwocky from the middle,What does the narrator and their dad often do on weekends?,A. Play sports together,B. Go kayaking down rapids,C. Reading books,D. Watch movies and eat popcorn,C. Reading books,no,7.3325,,,,,,,,,,,,,0,31,31,31,,,,,,,,,1061.5618611249997,,,,,,,,,,,,1063.252554791,1063.2685444166666,1063.266197291,1070.5962745829997,1070.602643833,1070.613802375,1070.850807875,1070.850807875,1072.8393095000001,1073.40737175,1.85,2.1981643330000225,1,[0.5775459169999522],[0.5775481669998044],,,,,,,,,,,,,,1073.407793208,1076.1533490829997,1,2.737750125000275,2.7377523330001168,0,,,0,,,0,,,,,,,,,,,1061.549670625,1061.5618611249997,1061.5618611249997,1061.5618611249997,1063.2523714999998,1,[1.701010750000023],[1.70101324999996],,,,,,,,,,,,p_3,001,2024-03-11_13h22.04.588,speech_rate,2023.2.3,None,2024-03-11 13h28.11.640394 -0700,
,Someday_45_condition-2x.wav,Someday__Someday__Maybe__Unabridged___File_024_of_116_1.wav,She's one of my best friends in class but I wonder sometimes how she feels about having gone from the lead of a hit TV show to commercials which is mainly what she does now and not the kind where she's playing Dina Shannon formerly of the hit show There's Pierre but just a regular actor pretending to like one brand of orange juice over another Anything she says flicking an ash on the ground Um yeah actually I got two callbacks with agencies Yeah she says you only need one,"What show did Dina, the actress, used to lead?",A. Friends,B. There's Pierre,C. Cordelia Biscayne,D. The House of Mirth,B. There's Pierre,no,14.51003125,,,,,,,,,,,,,0,32,32,32,,,,,,,,,1076.161563708,,,,,,,,,,,,1076.986418375,1077.0024270416668,1077.006756916,1091.54580425,1091.5173062909998,1091.538616333,1091.7510515,1091.7510515,1093.3978672499998,1094.102743166,8.216666666666667,1.8345641669998258,1,[0.7141662079998241],[0.7141683750000993],,,,,,,,,,,,,,1094.1031777079997,1101.3377529999998,0,,,0,,,1,7.226601124999888,7.226603832999899,0,,,,,,,,,,,1076.1538060409998,1076.161563708,1076.161563708,1076.161563708,1076.9862388329998,1,[0.83200533299987],[0.8320086250000713],,,,,,,,,,,,p_3,001,2024-03-11_13h22.04.588,speech_rate,2023.2.3,None,2024-03-11 13h28.11.640394 -0700,
,Someday_90_condition-4x.wav,Someday__Someday__Maybe__Unabridged___File_039_of_116_3.wav,There are so many to choose from I wonder if this is part of the audition and the chairs are a test I wonder if I'm being watched on a hidden camera I wonder if I should be worried about the alarming frequency that the concept of being watched on a hidden camera occurs to me But if I were being watched what chair would the people sitting behind the monitor in the hidden control room consider the right one Does Absolute Artists work only with people who choose to sit at the head of the table Does that say I'm a star Is that the kind of boldness they're looking for,Why does the narrator wonder if the chairs are part of the audition?,A. She thinks the chairs are being watched,B. She believes the chairs are a test,C. She wants to find the right chair to sit in,D. All of the above,D. All of the above,no,7.4275,,,,,,,,,,,,,0,33,33,33,,,,,,,,,1101.346310375,,,,,,,,,,,,1102.40473325,1102.4205849576667,1102.418735833,1109.848002833,1109.8499395,1109.8612774580001,1110.069263541,1110.069263541,1111.948957916,1112.5605742909997,1.2166666666666668,2.060969584000304,1,[0.620735083999989],[0.6207373339998412],,,,,,,,,,,,,,1112.5610041249997,1119.638956375,0,,,0,,,1,7.06896391600003,7.068966332999935,0,,,,,,,,,,,1101.3381801659998,1101.346310375,1101.346310375,1101.346310375,1102.404403166,1,[1.0648388750000777],[1.0648415000000568],,,,,,,,,,,,p_3,001,2024-03-11_13h22.04.588,speech_rate,2023.2.3,None,2024-03-11 13h28.11.640394 -0700,
,Someday_135_condition-2x.wav,Someday__Someday__Maybe__Unabridged___File_079_of_116_2.wav,"I can hear the light but quick creaking of someone jogging up the stairs, which tells me it's Jane coming home. Dan coming up the stairs sounds heavy and deliberate. Dan is rarely in a hurry. This is thrilling. Jane can be with me while I read the script for my first ever actual acting job. The fax starts to ring, but I know it will take forever to answer in print, so I whip down the metal circular staircase to tell Jane the news. Jane, I got a job. She turns away from the counter where she's unloading groceries and claps her hands, her face all lit up.",What news does the narrator tell Jane?,A. That she is fired,B. That she has a new boyfriend,C. That she got a job,D. That Dan is coming home,C. That she got a job,yes,15.51115625,,,,,,,,,,,,,0,34,34,34,0,0,0,0,0,0,0,0,1139.667886916,,,,,,,,,,,,1120.5225743329997,1120.5385763746665,1120.54304125,1136.0497500000001,1136.0548697909999,1136.06610425,1136.2704557910001,1136.2704557910001,1137.5388659579999,1138.327605,9.25,1.4476655420003226,1,[0.7986625829998957],[0.7986650419998114],,,,,,,,,,1139.658140083,1139.667886916,1154.651646625,she hears jane and dan's footsteps which are unusual and jane is unloading good news,,,,,,,,,,,,,,,1154.670860958,,,,,,,,1119.639436458,1119.646665666,1119.646665666,1119.646665666,1120.522396125,1,[0.8815964159998657],[0.8815989579998131],1138.3281042079998,1138.333953791,1138.333953791,1138.333953791,1139.6573905,1,[1.3285173750000467],[1.3285200830000576],0,,,p_3,001,2024-03-11_13h22.04.588,speech_rate,2023.2.3,None,2024-03-11 13h28.11.640394 -0700,
,Someday_135_condition-2x.wav,Someday__Someday__Maybe__Unabridged___File_079_of_116_2.wav,"I can hear the light but quick creaking of someone jogging up the stairs, which tells me it's Jane coming home. Dan coming up the stairs sounds heavy and deliberate. Dan is rarely in a hurry. This is thrilling. Jane can be with me while I read the script for my first ever actual acting job. The fax starts to ring, but I know it will take forever to answer in print, so I whip down the metal circular staircase to tell Jane the news. Jane, I got a job. She turns away from the counter where she's unloading groceries and claps her hands, her face all lit up.",What news does the narrator tell Jane?,A. That she is fired,B. That she has a new boyfriend,C. That she got a job,D. That Dan is coming home,C. That she got a job,yes,15.51115625,,,,,,,,,,,,,0,34,34,34,0,0,0,0,,,,,,,,,,,,,,,,,,,,,,,,,,,,,,,,,,,,,,,,,,,,,,,,,,,,,,,,,,,,,,,,,,,,,,,,,,,,,,,,,,,,,,p_3,001,2024-03-11_13h22.04.588,speech_rate,2023.2.3,None,2024-03-11 13h28.11.640394 -0700,
,Someday_135_condition-2x.wav,Someday__Someday__Maybe__Unabridged___File_079_of_116_2.wav,"I can hear the light but quick creaking of someone jogging up the stairs, which tells me it's Jane coming home. Dan coming up the stairs sounds heavy and deliberate. Dan is rarely in a hurry. This is thrilling. Jane can be with me while I read the script for my first ever actual acting job. The fax starts to ring, but I know it will take forever to answer in print, so I whip down the metal circular staircase to tell Jane the news. Jane, I got a job. She turns away from the counter where she's unloading groceries and claps her hands, her face all lit up.",What news does the narrator tell Jane?,A. That she is fired,B. That she has a new boyfriend,C. That she got a job,D. That Dan is coming home,C. That she got a job,yes,15.51115625,,,,,,,,,,,,,0,34,34,34,,,,,,,,,,,,,,,,,,,,,,,,,,,,,,,,,,,,,,,,,,,,,,,,,1154.651951583,1156.818006,0,,,0,,,1,2.157196541999838,2.1571992919998593,0,,,,,,,,,,,,,,,,,,,,,,,,,,,,,,p_3,001,2024-03-11_13h22.04.588,speech_rate,2023.2.3,None,2024-03-11 13h28.11.640394 -0700,
,Someday_51_condition-3x.wav,Someday__Someday__Maybe__Unabridged___File_025_of_116_4.wav,And he says Dina pauses as if the next part of the story is particularly hard to tell And he says only two things will happen with this One it's a giant hit and you're thanking me every year at the Emmys Or two they'll make the pilot it won't work it'll never air There's no scenario in between If for some reason they put this on the air and it isn't 100 fantastic he said it'll never last Dina and Leighton say together Then Dina slaps her palm to her forehead as if she still can't believe it,What does Dina do after telling the story?,A. She shakes her head,B. She slaps her palm to her forehead,C. She cries,D. She sits in silence,B. She slaps her palm to her forehead,no,11.23875,,,,,,,,,,,,,0,35,35,35,,,,,,,,,1156.8336023749998,,,,,,,,,,,,1158.6062885410001,1158.6218114996666,1158.6227197909998,1169.858532666,1169.8619531250001,1169.8731587080001,1170.103496666,1170.103496666,1172.0172861659998,1172.803016333,7.558333333333334,2.115646165999806,1,[0.7983200830003625],[0.7983227080003417],,,,,,,,,,,,,,1172.8035263329998,1174.585362458,0,,,1,1.7730378750002274,1.7730412920000163,0,,,0,,,,,,,,,,,1156.8184967910001,1156.8336023749998,1156.8336023749998,1156.8336023749998,1158.6060378329998,1,[1.7870750839997527],[1.7870777919997636],,,,,,,,,,,,p_3,001,2024-03-11_13h22.04.588,speech_rate,2023.2.3,None,2024-03-11 13h28.11.640394 -0700,
,Someday_65_condition-2-5x.wav,Someday__Someday__Maybe__Unabridged___File_032_of_116_0.wav,From the minute I walk into the wardrobe fitting in a trailer near mine I'm confused There are two giant rolling racks one full of tan trousers one stuffed with 30 or 40 identical blue shirts Oh Are there are there more people coming I ask a harried looking woman nearby She looks at me as though I've said something strange what oh the racks No those are all for you But aren't these all the same pants I say laughing a little,What does the narrator find confusing in the wardrobe fitting?,A. The lack of clothing options,B. The number of people there,C. The presence of a harried woman,D. The identical blue shirts and tan trousers,D. The identical blue shirts and tan trousers,no,12.289375,,,,,,,,,,,,,0,36,36,36,,,,,,,,,1174.6008859999997,,,,,,,,,,,,1175.142080791,1175.1580764166667,1175.1593592499999,1187.43969075,1187.4540713329998,1187.465288458,1187.670371625,1187.670371625,1190.1033982079998,1190.587121916,6.716666666666667,2.61363933299981,1,[0.4928155830002652],[0.49281816600023376],,,,,,,,,,,,,,1190.5875551660001,1194.1126493749998,0,,,0,,,0,,,1,3.515956458999881,3.515959291999934,,,,,,,,,1174.5858659579999,1174.6008859999997,1174.6008859999997,1174.6008859999997,1175.141902166,1,[0.5544658750000053],[0.5544685840000056],,,,,,,,,,,,p_3,001,2024-03-11_13h22.04.588,speech_rate,2023.2.3,None,2024-03-11 13h28.11.640394 -0700,
,Someday_22_condition-2x.wav,Someday__Someday__Maybe__Unabridged___File_013_of_116_1.wav,Want to go with me to that diner on 8th and get a salad in between Salad Oh yeah I'm supposed to eat more salad It just never seems appealing In fact I was already planning to go to that diner on 8th for my usual pre class dinner Grilled cheese french fries and the New York Times crossword puzzle But for some reason I find myself making an excuse I can't I have another you know torture session after this one,What was the narrator already planning to eat at the diner?,A. Grilled cheese and fries,B. Salad,C. Pie,D. Club sandwich,A. Grilled cheese and fries,no,14.08,,,,,,,,,,,,,0,37,37,37,,,,,,,,,1194.1204763329997,,,,,,,,,,,,1195.108375791,1195.1239769576666,1195.1278345,1209.2373377909998,1209.2085377909998,1209.229974583,1209.441410291,1209.441410291,1211.0354145830001,1211.783156083,8.016666666666667,1.7807044999999562,1,[0.7574977910003327],[0.7575000000001637],,,,,,,,,,,,,,1211.783600416,1213.3614296659998,1,1.5706164579996766,1.570618665999973,0,,,0,,,0,,,,,,,,,,,1194.1131662079997,1194.1204763329997,1194.1204763329997,1194.1204763329997,1195.10814025,1,[0.9934106250002515],[0.9934132920002412],,,,,,,,,,,,p_3,001,2024-03-11_13h22.04.588,speech_rate,2023.2.3,None,2024-03-11 13h28.11.640394 -0700,
,Someday_34_condition.wav,Someday__Someday__Maybe__Unabridged___File_019_of_116_2.wav,Who falls on stage wearing nothing but a bathrobe Why Why Why Why The monologue was going so well too or at least I think it was I'm not sure of anything now The audience seemed to be laughing in all the right places That's actually what threw me I think Their laughter threw my whole rhythm off having to wait until it died down before I could continue But still it was all okay until I tried to sit down The stage was just so dark and the lights were in my eyes,What disrupted the narrator's monologue performance?,A. The audience's laughter,B. The noise from the backstage,C. The unexpected props,D. The malfunctioning lights,A. The audience's laughter,yes,30.12,,,,,,,,,,,,,0,38,38,38,0,0,0,0,0,0,0,0,1248.4073133329998,,,,,,,,,,,,1214.444318208,1214.4936438329999,1214.4864361659997,1244.5944085,1244.624481625,1244.646257583,1244.859290041,1244.859290041,1246.759177,1247.4274220829998,9.841666666666667,2.0872042910000346,1,[0.6781410419998792],[0.6781432500001756],,,,,,,,,,1248.3974752499998,1248.4073133329998,1263.390990625,she was thrown off by the laughter because she had to pause for it so rhythm was off and the lights were in her face so uncomfortable,,,,,,,,,,,,,,,1263.410062291,,,,,,,,1213.3618585,1213.3693705,1213.3693705,1213.3693705,1214.4441365409998,1,[1.0818402079999032],[1.0818429159999141],1247.427921166,1247.4380635829998,1247.4380635829998,1247.4380635829998,1248.396731666,1,[0.9680295829998613],[0.9680321670002741],0,,,p_3,001,2024-03-11_13h22.04.588,speech_rate,2023.2.3,None,2024-03-11 13h28.11.640394 -0700,
,Someday_34_condition.wav,Someday__Someday__Maybe__Unabridged___File_019_of_116_2.wav,Who falls on stage wearing nothing but a bathrobe Why Why Why Why The monologue was going so well too or at least I think it was I'm not sure of anything now The audience seemed to be laughing in all the right places That's actually what threw me I think Their laughter threw my whole rhythm off having to wait until it died down before I could continue But still it was all okay until I tried to sit down The stage was just so dark and the lights were in my eyes,What disrupted the narrator's monologue performance?,A. The audience's laughter,B. The noise from the backstage,C. The unexpected props,D. The malfunctioning lights,A. The audience's laughter,yes,30.12,,,,,,,,,,,,,0,38,38,38,0,0,0,0,,,,,,,,,,,,,,,,,,,,,,,,,,,,,,,,,,,,,,,,,,,,,,,,,,,,,,,,,,,,,,,,,,,,,,,,,,,,,,,,,,,,,,p_3,001,2024-03-11_13h22.04.588,speech_rate,2023.2.3,None,2024-03-11 13h28.11.640394 -0700,
,Someday_34_condition.wav,Someday__Someday__Maybe__Unabridged___File_019_of_116_2.wav,Who falls on stage wearing nothing but a bathrobe Why Why Why Why The monologue was going so well too or at least I think it was I'm not sure of anything now The audience seemed to be laughing in all the right places That's actually what threw me I think Their laughter threw my whole rhythm off having to wait until it died down before I could continue But still it was all okay until I tried to sit down The stage was just so dark and the lights were in my eyes,What disrupted the narrator's monologue performance?,A. The audience's laughter,B. The noise from the backstage,C. The unexpected props,D. The malfunctioning lights,A. The audience's laughter,yes,30.12,,,,,,,,,,,,,0,38,38,38,,,,,,,,,,,,,,,,,,,,,,,,,,,,,,,,,,,,,,,,,,,,,,,,,1263.3912232080002,1267.4930696659999,1,4.092507249999926,4.092510041999958,0,,,0,,,0,,,,,,,,,,,,,,,,,,,,,,,,,,,,,,p_3,001,2024-03-11_13h22.04.588,speech_rate,2023.2.3,None,2024-03-11 13h28.11.640394 -0700,
,Someday_60_condition-3x.wav,Someday__Someday__Maybe__Unabridged___File_029_of_116_0.wav,Yes I guess you did some kind of television commercial and he saw you in something on Theatre Row I think it was just after he moved in Is that off Broadway or sorry is that Broadway You played two parts a psychiatrist and something else a French housekeeper A cockney maid It was just a two night thing not really even off Broadway very off Broadway I guess Yes that's it,What two parts did the narrator play in a theater production?,A. A psychiatrist and a French housekeeper,B. A lawyer and a judge,C. A doctor and a nurse,D. A singer and a dancer,A. A psychiatrist and a French housekeeper,no,10.83375,,,,,,,,,,,,,0,39,39,39,,,,,,,,,1267.506478583,,,,,,,,,,,,1268.897482208,1268.9134548746667,1268.913659375,1279.7407766249999,1279.74826075,1279.7594894159997,1279.99473,1279.99473,1281.473459625,1282.0308125000001,7.025,1.6860997079998015,1,[0.5700799999999617],[0.570082375000311],,,,,,,,,,,,,,1282.031239375,1284.752015,1,2.7123479169999882,2.7123506670000097,0,,,0,,,0,,,,,,,,,,,1267.493599125,1267.506478583,1267.506478583,1267.506478583,1268.8972896659998,1,[1.402138792000187],[1.4021414170001663],,,,,,,,,,,,p_3,001,2024-03-11_13h22.04.588,speech_rate,2023.2.3,None,2024-03-11 13h28.11.640394 -0700,
,Someday_107_condition-3-5x.wav,Someday__Someday__Maybe__Unabridged___File_048_of_116_0.wav,One more thing from last night Yeah Apparently We're not supposed to wash our jeans anymore the wardrobe lady told me We are only supposed to dry clean them What That's insane Yep We're supposed to buy jeans really tight as tight as we can squeeze into so all the fat gets compressed into as little space as possible Then we want the fat compression level to stay that way for as long as it can right Well washing jeans makes them softer and baggier and lessens the fat compression quotient,Why are people advised not to wash their jeans anymore?,A. To save water and be more environmentally friendly,B. To maintain the tight fit and fat compression,C. To reduce laundry expenses,D. To prevent jeans from fading,B. To maintain the tight fit and fat compression,no,9.0625,,,,,,,,,,,,,0,40,40,40,,,,,,,,,1284.759950833,,,,,,,,,,,,1285.5483157499998,1285.5642621246668,1285.562953875,1294.6149048329999,1294.628672291,1294.6398991659999,1294.8432256659999,1294.8432256659999,1296.307633458,1296.831894375,4.341666666666667,1.639918000000307,1,[0.5368805829998564],[0.5368858749998253],,,,,,,,,,,,,,1296.832299625,1300.1856038749997,0,,,1,3.3442237500003102,3.3442264590003106,0,,,0,,,,,,,,,,,1284.752588416,1284.759950833,1284.759950833,1284.759950833,1285.5481398749998,1,[0.793890625000131],[0.7938933330001419],,,,,,,,,,,,p_3,001,2024-03-11_13h22.04.588,speech_rate,2023.2.3,None,2024-03-11 13h28.11.640394 -0700,
,Someday_25_condition-2x.wav,Someday__Someday__Maybe__Unabridged___File_015_of_116_1.wav,Yeah and could you maybe put your hair in a ponytail Yeah I'm even less sure of what I did the second time but the stick straights laugh again anyway I think a hair is funnier down don't you One of them says to the other who nods vigorously back As I leave the room I stuff the paper with the copy on it in my bag even though you're not supposed to take it with you and bolt for the elevator I walk a few blocks and I'm not sure what direction I'm so excited that they seem to like me that I'm dizzy and disoriented,What do the casting directors suggest regarding the narrator's hair?,A. They ask her to wear it down,B. They ask her to put it in a ponytail,C. They don't mention her hair,D. They suggest she wears a wig,B. They ask her to put it in a ponytail,yes,14.395,,,,,,,,,,,,,0,41,41,41,0,0,0,0,0,0,0,0,1318.9117488329998,,,,,,,,,,,,1300.9327263330001,1300.9487200416668,1300.9516616659998,1315.3434096659998,1315.3469124160001,1315.3581262499997,1315.561503291,1315.561503291,1317.0771717080002,1317.6220909999997,7.716666666666666,1.694180999999844,1,[0.5546064579998529],[0.5546086250001281],,,,,,,,,,1318.902261583,1318.9117488329998,1333.901319916,dizzy and disoriented asking for hair down but not sure what she does the second time around,,,,,,,,,,,,,,,1333.9211460000001,,,,,,,,1300.186181,1300.208440625,1300.208440625,1300.208440625,1300.932551375,1,[0.7458960829999342],[0.7458987079999133],1317.622608791,1317.628424041,1317.628424041,1317.628424041,1318.9013703330002,1,[1.2779511250000724],[1.2779537500000515],0,,,p_3,001,2024-03-11_13h22.04.588,speech_rate,2023.2.3,None,2024-03-11 13h28.11.640394 -0700,
,Someday_25_condition-2x.wav,Someday__Someday__Maybe__Unabridged___File_015_of_116_1.wav,Yeah and could you maybe put your hair in a ponytail Yeah I'm even less sure of what I did the second time but the stick straights laugh again anyway I think a hair is funnier down don't you One of them says to the other who nods vigorously back As I leave the room I stuff the paper with the copy on it in my bag even though you're not supposed to take it with you and bolt for the elevator I walk a few blocks and I'm not sure what direction I'm so excited that they seem to like me that I'm dizzy and disoriented,What do the casting directors suggest regarding the narrator's hair?,A. They ask her to wear it down,B. They ask her to put it in a ponytail,C. They don't mention her hair,D. They suggest she wears a wig,B. They ask her to put it in a ponytail,yes,14.395,,,,,,,,,,,,,0,41,41,41,0,0,0,0,,,,,,,,,,,,,,,,,,,,,,,,,,,,,,,,,,,,,,,,,,,,,,,,,,,,,,,,,,,,,,,,,,,,,,,,,,,,,,,,,,,,,,p_3,001,2024-03-11_13h22.04.588,speech_rate,2023.2.3,None,2024-03-11 13h28.11.640394 -0700,
,Someday_25_condition-2x.wav,Someday__Someday__Maybe__Unabridged___File_015_of_116_1.wav,Yeah and could you maybe put your hair in a ponytail Yeah I'm even less sure of what I did the second time but the stick straights laugh again anyway I think a hair is funnier down don't you One of them says to the other who nods vigorously back As I leave the room I stuff the paper with the copy on it in my bag even though you're not supposed to take it with you and bolt for the elevator I walk a few blocks and I'm not sure what direction I'm so excited that they seem to like me that I'm dizzy and disoriented,What do the casting directors suggest regarding the narrator's hair?,A. They ask her to wear it down,B. They ask her to put it in a ponytail,C. They don't mention her hair,D. They suggest she wears a wig,B. They ask her to put it in a ponytail,yes,14.395,,,,,,,,,,,,,0,41,41,41,,,,,,,,,,,,,,,,,,,,,,,,,,,,,,,,,,,,,,,,,,,,,,,,,1333.9016068329997,1339.9476009999998,1,6.035827833999974,6.035830583999996,0,,,0,,,0,,,,,,,,,,,,,,,,,,,,,,,,,,,,,,p_3,001,2024-03-11_13h22.04.588,speech_rate,2023.2.3,None,2024-03-11 13h28.11.640394 -0700,
,Someday_117_condition-3-5x.wav,Someday__Someday__Maybe__Unabridged___File_052_of_116_1.wav,Maybe bagels are my problem Although one bagel doesn't seem like a lot of food I decide I will finish the bagel but not eat anything the rest of the day Except maybe a salad for dinner or soup No soup has hidden stuff in it Yes I'm fairly certain soup is another food that seems innocent but is actually fattening Chicken broth that only has like seven calories Can I get chicken broth at the deli Where can I get chicken broth You don't need to change anything,What conclusion does the narrator reach about soup?,A. Soup is always low in calories,B. Soup is a hidden source of calories,C. Soup is the healthiest food option,D. Soup is not a good choice for dinner,B. Soup is a hidden source of calories,no,8.475,,,,,,,,,,,,,0,42,42,42,,,,,,,,,1339.9606880410001,,,,,,,,,,,,1341.401671791,1341.4176482076666,1341.4157089999999,1349.8795236659998,1349.89757625,1349.9087915,1350.141772375,1350.141772375,1351.454991916,1352.8074027499997,3.541666666666667,2.121920042000056,1,[1.3615308329999607],[1.3615331660002994],,,,,,,,,,,,,,1352.8078437079998,1359.369658,1,6.552847709000162,6.552849959000014,0,,,0,,,0,,,,,,,,,,,1339.9481249159999,1339.9606880410001,1339.9606880410001,1339.9606880410001,1341.401488375,1,[1.4516269999999167],[1.451629708999917],,,,,,,,,,,,p_3,001,2024-03-11_13h22.04.588,speech_rate,2023.2.3,None,2024-03-11 13h28.11.640394 -0700,
,Someday_144_condition-4x.wav,Someday__Someday__Maybe__Unabridged___File_092_of_116_1.wav,"Numbly, I watch my father behave in a way I've seldom seen. I'm riveted by how unfamiliar he seems to me, and I can't look away, even though his loopy expression makes me feel a little queasy. He's grinning so wide, he looks positively goofy. He calls her Dr. Mary, as in, Dr. Mary and I both love the New Haven Symphony season, and in response she laughs and rolls her eyes. It's so embarrassing when he calls me that, isn't it, Frances?",What does the narrator's father call the woman?,A. Dr. Mary,B. Dr. Shelly,C. Dr. Meryl,D. Dr. Kelly,A. Dr. Mary,no,7.38015625,,,,,,,,,,,,,0,43,43,43,,,,,,,,,1359.377066,,,,,,,,,,,,1360.8528983329998,1360.8688915826667,1360.866080958,1368.246455,1368.2514975,1368.262716666,1368.4660304579998,1368.4660304579998,1370.1470520409998,1371.0516547500001,2.783333333333333,2.178307041000153,1,[0.9141970000000583],[0.9141991659998894],,,,,,,,,,,,,,1371.052073791,1373.487078958,1,2.427877458000239,2.4278797080000913,0,,,0,,,0,,,,,,,,,,,1359.370092,1359.377066,1359.377066,1359.377066,1360.852716041,1,[1.4812617920001685],[1.4812644580001688],,,,,,,,,,,,p_3,001,2024-03-11_13h22.04.588,speech_rate,2023.2.3,None,2024-03-11 13h28.11.640394 -0700,
,Someday_18_condition.wav,Someday__Someday__Maybe__Unabridged___File_011_of_116_1.wav,The D train between Brooklyn and Manhattan is one of my favorite lines because at one the train emerges from underground and goes high over the river along the Manhattan Bridge Sometimes I put on my headphones and listen to music Sometimes I do the New York Times crossword puzzle And sometimes I read But no matter what else I'm doing I consider it very bad luck if I forget to look up as the train crosses over the East River even just for a second before it goes back underground It's just a superstition,Why does the narrator always look up when the D train crosses the East River?,A. To enjoy the view,B. To avoid bad luck,C. To read the subway signs,D. To see if it's raining,B. To avoid bad luck,yes,28.04,,,,,,,,,,,,,0,44,44,44,0,0,0,0,0,0,0,0,1406.516497833,,,,,,,,,,,,1374.653715375,1374.6863416663332,1374.685564291,1402.731629166,1402.733786833,1402.7551521659998,1402.9552698329999,1402.9552698329999,1404.2304154160001,1404.8946650409998,9.883333333333333,1.4467337910000424,1,[0.6769451250002021],[0.6769475830001284],,,,,,,,,,1406.5070259999998,1406.516497833,1421.5002627909998,she does lots of different things on the d train but needs to look up as it crosses the east river ,,,,,,,,,,,,,,,1421.5197927079998,,,,,,,,1373.4875325409998,1373.495215041,1373.495215041,1373.495215041,1374.6535184579998,1,[1.1655122090000987],[1.1655148340000778],1404.895230791,1404.901397041,1404.901397041,1404.901397041,1406.506185541,1,[1.6101072500000555],[1.6101099170000452],0,,,p_3,001,2024-03-11_13h22.04.588,speech_rate,2023.2.3,None,2024-03-11 13h28.11.640394 -0700,
,Someday_18_condition.wav,Someday__Someday__Maybe__Unabridged___File_011_of_116_1.wav,The D train between Brooklyn and Manhattan is one of my favorite lines because at one the train emerges from underground and goes high over the river along the Manhattan Bridge Sometimes I put on my headphones and listen to music Sometimes I do the New York Times crossword puzzle And sometimes I read But no matter what else I'm doing I consider it very bad luck if I forget to look up as the train crosses over the East River even just for a second before it goes back underground It's just a superstition,Why does the narrator always look up when the D train crosses the East River?,A. To enjoy the view,B. To avoid bad luck,C. To read the subway signs,D. To see if it's raining,B. To avoid bad luck,yes,28.04,,,,,,,,,,,,,0,44,44,44,0,0,0,0,,,,,,,,,,,,,,,,,,,,,,,,,,,,,,,,,,,,,,,,,,,,,,,,,,,,,,,,,,,,,,,,,,,,,,,,,,,,,,,,,,,,,,p_3,001,2024-03-11_13h22.04.588,speech_rate,2023.2.3,None,2024-03-11 13h28.11.640394 -0700,
,Someday_18_condition.wav,Someday__Someday__Maybe__Unabridged___File_011_of_116_1.wav,The D train between Brooklyn and Manhattan is one of my favorite lines because at one the train emerges from underground and goes high over the river along the Manhattan Bridge Sometimes I put on my headphones and listen to music Sometimes I do the New York Times crossword puzzle And sometimes I read But no matter what else I'm doing I consider it very bad luck if I forget to look up as the train crosses over the East River even just for a second before it goes back underground It's just a superstition,Why does the narrator always look up when the D train crosses the East River?,A. To enjoy the view,B. To avoid bad luck,C. To read the subway signs,D. To see if it's raining,B. To avoid bad luck,yes,28.04,,,,,,,,,,,,,0,44,44,44,,,,,,,,,,,,,,,,,,,,,,,,,,,,,,,,,,,,,,,,,,,,,,,,,1421.500556,1425.185518375,0,,,1,3.675509499999862,3.6755122499998834,0,,,0,,,,,,,,,,,,,,,,,,,,,,,,,,,,,,p_3,001,2024-03-11_13h22.04.588,speech_rate,2023.2.3,None,2024-03-11 13h28.11.640394 -0700,
,Someday_87_condition.wav,Someday__Someday__Maybe__Unabridged___File_039_of_116_0.wav,The reception area is a soothing soft grey Everything is plush and velvet The carpet looks like shiny grey silk and the sofa is a silvery suede that appears freshly brushed as though no one has ever sat on it There's a long reception desk behind which sit two of the most beautiful people I have ever seen also swathed in grey The perfect specimen male is reading a script and the perfect specimen female is on a headset talking to someone in a British accent,How does the narrator describe the reception area of Absolute Artists?,A. It's brightly colored,B. It's cold and uninviting,C. It's plush and soothing,D. It's chaotic and messy,C. It's plush and soothing,no,28.42996875,,,,,,,,,,,,,0,45,45,45,,,,,,,,,1425.1990986659998,,,,,,,,,,,,1426.1731866659998,1426.205833499333,1426.2042004999998,1454.6347974159999,1454.6384104159997,1454.660194083,1454.901955291,1454.901955291,1456.394065291,1456.9629153329997,9.933333333333334,1.7071384169998964,1,[0.5774255420001282],[0.5774282090001179],,,,,,,,,,,,,,1456.9633496659999,1459.925975,0,,,0,,,1,2.9543261250000796,2.954328667000027,0,,,,,,,,,,,1425.1860674999998,1425.1990986659998,1425.1990986659998,1425.1990986659998,1426.1730067499998,1,[0.985273084000255],[0.9852757090002342],,,,,,,,,,,,p_3,001,2024-03-11_13h22.04.588,speech_rate,2023.2.3,None,2024-03-11 13h28.11.640394 -0700,
,Someday_19_condition-3-5x.wav,Someday__Someday__Maybe__Unabridged___File_012_of_116_0.wav,No I'll push it his sister says giving him a little shove It's my callback The little boy shrinks back from the elevator buttons and I smile sympathetically at their mom but she seems mesmerized by a spot somewhere north of the top of my head so I decide to take a sudden interest in the laces of my shoes and endure the rest of the long creaky ride in silence Even in the best of elevators I think there's no place where time passes so slowly,Where is the narrator?,A. In an audition,B. In a kindergarden,C. In an elevator,D. In a parents meeting,C. In an elevator,no,8.721875,,,,,,,,,,,,,0,46,46,46,,,,,,,,,1459.932821083,,,,,,,,,,,,1461.741933583,1461.7578925826667,1461.7562817079997,1470.485635291,1470.487853958,1470.4990792909998,1470.705442291,1470.705442291,1472.5089040829998,1473.148045541,6.283333333333333,1.9837490419999995,1,[0.6489182079999409],[0.6489205829998355],,,,,,,,,,,,,,1473.1484528749997,1475.8427351249998,0,,,0,,,1,2.6868117920002987,2.686814250000225,0,,,,,,,,,,,1459.9264053329998,1459.932821083,1459.932821083,1459.932821083,1461.7417476659998,1,[1.8139367089997904],[1.813939499999833],,,,,,,,,,,,p_3,001,2024-03-11_13h22.04.588,speech_rate,2023.2.3,None,2024-03-11 13h28.11.640394 -0700,
