index,wav_file,old_name,segment_text,question,C1,C2,C3,C4,C_correct,summary,duration,training.thisRepN,training.thisTrialN,training.thisN,training.thisIndex,sum_true.thisRepN,sum_true.thisTrialN,sum_true.thisN,sum_true.thisIndex,dummy_loop.thisRepN,dummy_loop.thisTrialN,dummy_loop.thisN,dummy_loop.thisIndex,experiment.thisRepN,experiment.thisTrialN,experiment.thisN,experiment.thisIndex,sum_true_exp.thisRepN,sum_true_exp.thisTrialN,sum_true_exp.thisN,sum_true_exp.thisIndex,dummy_loop_exp.thisRepN,dummy_loop_exp.thisTrialN,dummy_loop_exp.thisN,dummy_loop_exp.thisIndex,thisRow.t,notes,Experimenter.started,reminder.started,Experimenter.stopped,Instructions.started,Instructions.stopped,Start_Segment_Train.started,Play_train.started,Trial_counter_train.started,text_5.started,Start_Segment_Train.stopped,Play_train.numClicks,Play_train.timesOn,Play_train.timesOff,Training_Segment.started,Experimen_audio.started,polygon.started,polygon.stopped,Training_Segment.stopped,Rating.started,slider.started,text_3.started,button_2.started,Rating.stopped,slider.response,slider.rt,button_2.numClicks,button_2.timesOn,button_2.timesOff,Start_Summary.started,text_2.started,Start_Summary.stopped,summary_button.numClicks,summary_button.timesOn,summary_button.timesOff,Summary.started,textbox.started,summary_done.started,Summary.stopped,textbox.text,summary_done.numClicks,summary_done.timesOn,summary_done.timesOff,Multiple_Choice_2.started,Multiple_Choice_2.stopped,A.numClicks,A.timesOn,A.timesOff,B.numClicks,B.timesOn,B.timesOff,C.numClicks,C.timesOn,C.timesOff,D.numClicks,D.timesOn,D.timesOff,Start_Exp.started,Start_exp.started,Start.started,Start_Exp.stopped,Start.numClicks,Start.timesOn,Start.timesOff,Start_Segment.started,Play.started,Trial_counter.started,text_6.started,Start_Segment.stopped,Play.numClicks,Play.timesOn,Play.timesOff,Start_Sum_Exp.started,text_4.started,Start_Sum_Exp.stopped,sum_button.numClicks,sum_button.timesOn,sum_button.timesOff,textbox.stopped,summary_done.stopped,Thanks.started,text_7.started,text_7.stopped,Thanks.stopped,participant,session,date,expName,psychopyVersion,frameRate,expStart,
1,Someday_trial_condition.wav,Someday__Someday__Maybe__Unabridged___File_069_of_116_3.wav,It's a gut feeling You can't nickname him He's a real person not a joke person You don't have to tell me Only a real person would try to shake hands with my best friend's foot Jane you're not explaining it right It was very romantic And thankfully our steaming bowl of bright yellow melted cheese with flecks of green chilies arrives Listen she says dipping a chip into the creamy depths You're the one with the brand new personality I'm still the same old Jane,"What does the narrator have, according to Jane?",A) A new recipe for dipping sauce,B) A new personality,C) A new restaurant suggestion,D) A new pair of shoes,B) A new personality,yes,30,0,0,0,0,0,0,0,0,0,0,0,0,,,,,,,,,,,,,407.047024958,,0.008940957999996613,0.018257500000004256,346.025435667,346.025444583,362.233097458,362.243531167,362.260779875,362.260779875,362.260779875,366.30185529199997,1,[4.048559791000002],[4.048564999999996],366.3023425,366.34829270800003,366.344494042,396.363730917,396.333915708,396.356155625,396.564671125,396.564671125,400.3820185,403.828777,9.958333333333334,3.997913374999996,1,[3.4593041659999813],[3.4593065409999895],403.830992208,403.836678083,407.008283875,1,[3.176634042000046],[3.1766366670000252],407.009020125,407.047024958,407.047024958,437.018524625,Two friends met up seemingly to eat food together. Green chiles in some sort of yellow sauce. They talked about a werid date the ,0,,,,,,,,,,,,,,,,,,,,,,,,,,,,,,,,,,,,,,,,,,,,p_10,001,2024-05-10_09h25.52.815,speech_rate,2023.2.3,None,2024-05-10 09h26.05.860384 -0700,
1,Someday_trial_condition.wav,Someday__Someday__Maybe__Unabridged___File_069_of_116_3.wav,It's a gut feeling You can't nickname him He's a real person not a joke person You don't have to tell me Only a real person would try to shake hands with my best friend's foot Jane you're not explaining it right It was very romantic And thankfully our steaming bowl of bright yellow melted cheese with flecks of green chilies arrives Listen she says dipping a chip into the creamy depths You're the one with the brand new personality I'm still the same old Jane,"What does the narrator have, according to Jane?",A) A new recipe for dipping sauce,B) A new personality,C) A new restaurant suggestion,D) A new pair of shoes,B) A new personality,yes,30,0,0,0,0,0,0,0,0,,,,,,,,,,,,,,,,,,,,,,,,,,,,,,,,,,,,,,,,,,,,,,,,,,,,,,,,,,,,,,,,,,,,,,,,,,,,,,,,,,,,,,,,,,,,,,,,,,,,,,p_10,001,2024-05-10_09h25.52.815,speech_rate,2023.2.3,None,2024-05-10 09h26.05.860384 -0700,
1,Someday_trial_condition.wav,Someday__Someday__Maybe__Unabridged___File_069_of_116_3.wav,It's a gut feeling You can't nickname him He's a real person not a joke person You don't have to tell me Only a real person would try to shake hands with my best friend's foot Jane you're not explaining it right It was very romantic And thankfully our steaming bowl of bright yellow melted cheese with flecks of green chilies arrives Listen she says dipping a chip into the creamy depths You're the one with the brand new personality I'm still the same old Jane,"What does the narrator have, according to Jane?",A) A new recipe for dipping sauce,B) A new personality,C) A new restaurant suggestion,D) A new pair of shoes,B) A new personality,yes,30,0,0,0,0,,,,,,,,,,,,,,,,,,,,,,,,,,,,,,,,,,,,,,,,,,,,,,,,,,,,,,,,,,,,,,,,,437.01888016699996,443.353188958,0,,,1,6.313072040999941,6.313074874999984,0,,,0,,,,,,,,,,,,,,,,,,,,,,,,,,,,,,p_10,001,2024-05-10_09h25.52.815,speech_rate,2023.2.3,None,2024-05-10 09h26.05.860384 -0700,
2,Someday_trial_condition-5x.wav,Someday__Someday__Maybe__Unabridged___File_103_of_116_1.wav,Isn't halfway where two people usually meet Well in general maybe But tonight this is sort of a big deal for me It's my night I'm not sure you you don't think I get it Well no I mean how could you I'm having trouble making sense of this conversation James is speaking with authority but there's something wrong Something feels so wrong somehow I don't care about waving and smiling and having my picture taken with him,"How does James speak, according to the narrator?",A) With compassion,B) With grief,C) With hesitation,D) With authority,D) With authority,yes,6.2,0,1,1,1,0,0,0,0,0,0,0,0,,,,,,,,,,,,,463.556314417,,,,,,,443.354036042,443.363894583,443.363894583,443.363894583,448.539733292,1,[5.181678708999925],[5.181683499999963],448.53997866699996,448.55311524966663,448.552458875,454.756072542,454.737320667,454.748516792,455.008690083,455.008690083,458.058686208,459.08146712499996,1,3.285389499999951,1,[1.0325070000000096],[1.032509416000039],459.08195141699997,459.087343375,463.543897875,1,[4.461532207999994],[4.461538375000032],463.54453133299995,463.556314417,463.556314417,470.96217337499996,so wrong,1,[7.413810540999975],[7.413814290999994],,,,,,,,,,,,,,,,,,,,,,,,,,,,,,,,,,,,,,,,,,p_10,001,2024-05-10_09h25.52.815,speech_rate,2023.2.3,None,2024-05-10 09h26.05.860384 -0700,
2,Someday_trial_condition-5x.wav,Someday__Someday__Maybe__Unabridged___File_103_of_116_1.wav,Isn't halfway where two people usually meet Well in general maybe But tonight this is sort of a big deal for me It's my night I'm not sure you you don't think I get it Well no I mean how could you I'm having trouble making sense of this conversation James is speaking with authority but there's something wrong Something feels so wrong somehow I don't care about waving and smiling and having my picture taken with him,"How does James speak, according to the narrator?",A) With compassion,B) With grief,C) With hesitation,D) With authority,D) With authority,yes,6.2,0,1,1,1,0,0,0,0,,,,,,,,,,,,,,,,,,,,,,,,,,,,,,,,,,,,,,,,,,,,,,,,,,,,,,,,,,,,,,,,,,,,,,,,,,,,,,,,,,,,,,,,,,,,,,,,,,,,,,p_10,001,2024-05-10_09h25.52.815,speech_rate,2023.2.3,None,2024-05-10 09h26.05.860384 -0700,
2,Someday_trial_condition-5x.wav,Someday__Someday__Maybe__Unabridged___File_103_of_116_1.wav,Isn't halfway where two people usually meet Well in general maybe But tonight this is sort of a big deal for me It's my night I'm not sure you you don't think I get it Well no I mean how could you I'm having trouble making sense of this conversation James is speaking with authority but there's something wrong Something feels so wrong somehow I don't care about waving and smiling and having my picture taken with him,"How does James speak, according to the narrator?",A) With compassion,B) With grief,C) With hesitation,D) With authority,D) With authority,yes,6.2,0,1,1,1,,,,,,,,,,,,,,,,,,,,,,,,,,,,,,,,,,,,,,,,,,,,,,,,,,,,,,,,,,,,,,,,,470.962665167,483.19817825,1,12.224497958000029,12.224500625000019,0,,,0,,,0,,,,,,,,,,,,,,,,,,,,,,,,,,,,,,p_10,001,2024-05-10_09h25.52.815,speech_rate,2023.2.3,None,2024-05-10 09h26.05.860384 -0700,
,Someday_14_condition-5x.wav,Someday__Someday__Maybe__Unabridged___File_009_of_116_2.wav,Jane grew up in Greenwich Village in Manhattan and has style Where I struggle to match a black shirt with black pants she throws on jeans and a t shirt and nine chunky cuffs on one wrist with an air that says so I dare you to not find this cool She shops at Century 21 and Boltons and second hand stores and somehow makes it all look expensive Wait Jane Levine you are not just getting home are you I ask peeking into one of the brown bags Can they do that to you,Where did Jane grow up in?,A. Williamsburg,B. Greenwich Village,C. SoHo,D. Queens,B. Greenwich Village,no,5.632,,,,,,,,,,,,,0,0,0,0,,,,,,,,,495.76936800000004,,,,,,,,,,,,,,,500.856675167,500.87205666666665,500.867929917,506.49229504199997,506.508312,506.518582458,506.73202599999996,506.73202599999996,510.54425124999995,511.27833112499997,1,4.0014651249999815,1,[0.743336582999973],[0.7433405409999523],,,,,,,,,,,,,,,511.278994417,515.6392244169999,0,,,0,,,1,4.35134974999994,4.351352499999962,0,,,483.198650042,483.20543879200005,483.20543879200005,495.71346454200005,1,[12.514059332999977],[12.514062082999999],495.758715333,495.76936800000004,495.76936800000004,495.76936800000004,500.8562315,1,[5.094328832999963],[5.094331667000006],,,,,,,,,,,,,p_10,001,2024-05-10_09h25.52.815,speech_rate,2023.2.3,None,2024-05-10 09h26.05.860384 -0700,
,Someday_73_condition-2x.wav,Someday__Someday__Maybe__Unabridged___File_035_of_116_1.wav,It's four flights up to Barney's office I'm puffing by the time I make it to the top There's no secretary sitting at the desk in the little front room Hello I say to the emptiness Back here dear comes a loud and raspy voice There's a desk with a window behind it and bookshelves on either side which are stacked to the ceiling with scripts and old playbills The titles are written in Sharpie on the edge of the pages so they can be read when stacked face to face and the block print is bold but shaky,What are the stacked objects at Barney Sparks' office?,A. Scripts,B. Paychecks,C. Menus,D. Photos,A. Scripts,yes,14.67,,,,,,,,,,,,,0,1,1,1,0,0,0,0,0,0,0,0,561.88979225,,,,,,,,,,,,,,,524.8285953750001,524.8612537503334,524.851492125,539.513585292,539.5322001249999,539.5535992079999,539.7616472079999,539.7616472079999,544.3918451669999,549.8648451250001,7.050000000000001,8.681007416999933,1,[5.482451125000011],[5.48245350000002],,,,,,,561.8785875829999,561.88979225,561.88979225,591.877850375,Some one enters a room and is greeted by someone sayign over here dear. They then describe writing atierial and written words bold but shak,0,,,,,,,,,,,,,,,,,,,,,,,,515.640137417,515.646233083,515.646233083,515.646233083,524.828408375,1,[9.186940124999978],[9.186942749999957],549.865337208,549.874020125,561.8776685830001,1,[12.010874958000045],[12.01088520799999],591.89718425,591.89718425,,,,,p_10,001,2024-05-10_09h25.52.815,speech_rate,2023.2.3,None,2024-05-10 09h26.05.860384 -0700,
,Someday_73_condition-2x.wav,Someday__Someday__Maybe__Unabridged___File_035_of_116_1.wav,It's four flights up to Barney's office I'm puffing by the time I make it to the top There's no secretary sitting at the desk in the little front room Hello I say to the emptiness Back here dear comes a loud and raspy voice There's a desk with a window behind it and bookshelves on either side which are stacked to the ceiling with scripts and old playbills The titles are written in Sharpie on the edge of the pages so they can be read when stacked face to face and the block print is bold but shaky,What are the stacked objects at Barney Sparks' office?,A. Scripts,B. Paychecks,C. Menus,D. Photos,A. Scripts,yes,14.67,,,,,,,,,,,,,0,1,1,1,0,0,0,0,,,,,,,,,,,,,,,,,,,,,,,,,,,,,,,,,,,,,,,,,,,,,,,,,,,,,,,,,,,,,,,,,,,,,,,,,,,,,,,,,,,,,,,,,,p_10,001,2024-05-10_09h25.52.815,speech_rate,2023.2.3,None,2024-05-10 09h26.05.860384 -0700,
,Someday_73_condition-2x.wav,Someday__Someday__Maybe__Unabridged___File_035_of_116_1.wav,It's four flights up to Barney's office I'm puffing by the time I make it to the top There's no secretary sitting at the desk in the little front room Hello I say to the emptiness Back here dear comes a loud and raspy voice There's a desk with a window behind it and bookshelves on either side which are stacked to the ceiling with scripts and old playbills The titles are written in Sharpie on the edge of the pages so they can be read when stacked face to face and the block print is bold but shaky,What are the stacked objects at Barney Sparks' office?,A. Scripts,B. Paychecks,C. Menus,D. Photos,A. Scripts,yes,14.67,,,,,,,,,,,,,0,1,1,1,,,,,,,,,,,,,,,,,,,,,,,,,,,,,,,,,,,,,,,,,,,,,,,,,,,,,591.8782819579999,595.696716958,1,3.8084974170000123,3.808500625000079,0,,,0,,,0,,,,,,,,,,,,,,,,,,,,,,,,,,,,,,p_10,001,2024-05-10_09h25.52.815,speech_rate,2023.2.3,None,2024-05-10 09h26.05.860384 -0700,
,Someday_71_condition-5x.wav,Someday__Someday__Maybe__Unabridged___File_033_of_116_5.wav,Mavis Alicia Carol I say to myself Mavis Alicia Carol Do you like to do this yourself I look up for my magazine to find Carol waving a strange metal object in front of my face I have no idea what it is or what it might be used for I'm sorry what is that Carol peers over her glasses at me in surprise You've never seen one of these before No But of course you have It's an eyelash curler I'm sure your mother has one,What is the object that the narrator has never seen before?,A. A cushion foundation,B. A colorful eyeliner,C. An eyelash curler,D. A brow gel,C. An eyelash curler,yes,5.976,,,,,,,,,,,,,0,2,2,2,0,0,0,0,0,0,0,0,611.2281109579999,,,,,,,,,,,,,,,600.0675699169999,600.0835522086666,600.0793948749999,606.061634208,606.0629368750001,606.074159542,606.3399465,606.3399465,608.56232875,609.785191792,3.208333333333333,2.4635111669999787,1,[1.2325937499999782],[1.2325964589999785],,,,,,,611.216604833,611.2281109579999,611.2281109579999,638.297727292,I was surprised... you've never seen this before? of course you have,1,[27.078072292],[27.078075624999997],,,,,,,,,,,,,,,,,,,,,,595.697273792,595.7107431669999,595.7107431669999,595.7107431669999,600.0673824999999,1,[4.368403833000002],[4.368406417000074],609.7857092500001,609.7939482080001,611.2157742920001,1,[1.4294138749999092],[1.4294192919999205],,,,,,,p_10,001,2024-05-10_09h25.52.815,speech_rate,2023.2.3,None,2024-05-10 09h26.05.860384 -0700,
,Someday_71_condition-5x.wav,Someday__Someday__Maybe__Unabridged___File_033_of_116_5.wav,Mavis Alicia Carol I say to myself Mavis Alicia Carol Do you like to do this yourself I look up for my magazine to find Carol waving a strange metal object in front of my face I have no idea what it is or what it might be used for I'm sorry what is that Carol peers over her glasses at me in surprise You've never seen one of these before No But of course you have It's an eyelash curler I'm sure your mother has one,What is the object that the narrator has never seen before?,A. A cushion foundation,B. A colorful eyeliner,C. An eyelash curler,D. A brow gel,C. An eyelash curler,yes,5.976,,,,,,,,,,,,,0,2,2,2,0,0,0,0,,,,,,,,,,,,,,,,,,,,,,,,,,,,,,,,,,,,,,,,,,,,,,,,,,,,,,,,,,,,,,,,,,,,,,,,,,,,,,,,,,,,,,,,,,p_10,001,2024-05-10_09h25.52.815,speech_rate,2023.2.3,None,2024-05-10 09h26.05.860384 -0700,
,Someday_71_condition-5x.wav,Someday__Someday__Maybe__Unabridged___File_033_of_116_5.wav,Mavis Alicia Carol I say to myself Mavis Alicia Carol Do you like to do this yourself I look up for my magazine to find Carol waving a strange metal object in front of my face I have no idea what it is or what it might be used for I'm sorry what is that Carol peers over her glasses at me in surprise You've never seen one of these before No But of course you have It's an eyelash curler I'm sure your mother has one,What is the object that the narrator has never seen before?,A. A cushion foundation,B. A colorful eyeliner,C. An eyelash curler,D. A brow gel,C. An eyelash curler,yes,5.976,,,,,,,,,,,,,0,2,2,2,,,,,,,,,,,,,,,,,,,,,,,,,,,,,,,,,,,,,,,,,,,,,,,,,,,,,638.298205542,646.9310148750001,0,,,0,,,1,8.62301545899993,8.623018417000026,0,,,,,,,,,,,,,,,,,,,,,,,,,,,,,,p_10,001,2024-05-10_09h25.52.815,speech_rate,2023.2.3,None,2024-05-10 09h26.05.860384 -0700,
,Someday_69_condition.wav,Someday__Someday__Maybe__Unabridged___File_033_of_116_3.wav,Mmm let me see Carol puts on the glasses that hang on a chain around her neck and brings her face just inches from mine I hold very still as if I'm being examined in a doctor's office Well you have some freckles it's true I don't think they're distracting though I don't see them as a problem but I can even out your skin tone if that's what concerns you Carol sighs I don't think she likes me Okay great whatever you think thanks Want a magazine,What does Carol suggest to the main character regarding her freckles?,A. Cover them up with makeup,B. Embrace them as unique,C. Remove them with a cream,D. Get freckle tattoos,A. Cover them up with makeup,yes,29.52,,,,,,,,,,,,,0,3,3,3,0,0,0,0,0,0,0,0,682.1636094999999,,,,,,,,,,,,,,,647.74807375,647.7970471669998,647.7875145,677.3050390420001,677.318558333,677.3399199999999,677.605572917,677.605572917,679.7708273329999,680.5721301250001,9.850000000000001,2.406929666999986,1,[0.8105927090000478],[0.8105949590000137],,,,,,,682.1521130000001,682.1636094999999,682.1636094999999,712.1516677919999,"Carol leans in close and notices someone freckles, she resassures her about hte freckles but ofers to even out  her skin tone. The narratori sis worried about not being liked",0,,,,,,,,,,,,,,,,,,,,,,,,646.9315436249999,646.937364458,646.937364458,646.937364458,647.7478517080001,1,[0.8158832909999774],[0.81588612500002],680.572647042,680.5811759999999,682.1511849579999,1,[1.576733957999977],[1.576752541000019],712.172967125,712.172967125,,,,,p_10,001,2024-05-10_09h25.52.815,speech_rate,2023.2.3,None,2024-05-10 09h26.05.860384 -0700,
,Someday_69_condition.wav,Someday__Someday__Maybe__Unabridged___File_033_of_116_3.wav,Mmm let me see Carol puts on the glasses that hang on a chain around her neck and brings her face just inches from mine I hold very still as if I'm being examined in a doctor's office Well you have some freckles it's true I don't think they're distracting though I don't see them as a problem but I can even out your skin tone if that's what concerns you Carol sighs I don't think she likes me Okay great whatever you think thanks Want a magazine,What does Carol suggest to the main character regarding her freckles?,A. Cover them up with makeup,B. Embrace them as unique,C. Remove them with a cream,D. Get freckle tattoos,A. Cover them up with makeup,yes,29.52,,,,,,,,,,,,,0,3,3,3,0,0,0,0,,,,,,,,,,,,,,,,,,,,,,,,,,,,,,,,,,,,,,,,,,,,,,,,,,,,,,,,,,,,,,,,,,,,,,,,,,,,,,,,,,,,,,,,,,p_10,001,2024-05-10_09h25.52.815,speech_rate,2023.2.3,None,2024-05-10 09h26.05.860384 -0700,
,Someday_69_condition.wav,Someday__Someday__Maybe__Unabridged___File_033_of_116_3.wav,Mmm let me see Carol puts on the glasses that hang on a chain around her neck and brings her face just inches from mine I hold very still as if I'm being examined in a doctor's office Well you have some freckles it's true I don't think they're distracting though I don't see them as a problem but I can even out your skin tone if that's what concerns you Carol sighs I don't think she likes me Okay great whatever you think thanks Want a magazine,What does Carol suggest to the main character regarding her freckles?,A. Cover them up with makeup,B. Embrace them as unique,C. Remove them with a cream,D. Get freckle tattoos,A. Cover them up with makeup,yes,29.52,,,,,,,,,,,,,0,3,3,3,,,,,,,,,,,,,,,,,,,,,,,,,,,,,,,,,,,,,,,,,,,,,,,,,,,,,712.1521566250001,730.90222225,1,18.738840374999995,18.738842792000014,0,,,0,,,0,,,,,,,,,,,,,,,,,,,,,,,,,,,,,,p_10,001,2024-05-10_09h25.52.815,speech_rate,2023.2.3,None,2024-05-10 09h26.05.860384 -0700,
,Someday_16_condition-2x.wav,Someday__Someday__Maybe__Unabridged___File_010_of_116_0.wav,When he tries to describe the story to me I find myself counting the planks in our floor weighing the merits of vegetable versus scallion cream cheese But I'm sure it's better than it sounds How's my hair I'm taking an apartment wide poll for some reason this time my question is accompanied by a weird sort of tap step Flourish in order to sell it I hate myself I must be stopped Big he says hopefully huh,What does the narrator do while the person describes the story to her?,A. Counts the planks in the floor,B. Weighs the merits of cream cheese,C. Dances a tap step,D. Flips her hair dramatically,A. Counts the planks in the floor,yes,13.79,,,,,,,,,,,,,0,4,4,4,0,0,0,0,0,0,0,0,779.0708629999999,,,,,,,,,,,,,,,733.6862630420001,733.7021504586667,733.70566575,747.492759875,747.4950383329999,747.506275,747.771230625,747.771230625,749.7855019579999,752.098043,10.0,3.2836016249999602,1,[2.324157624999998],[2.3241599579999956],,,,,,,779.0436594580001,779.0708629999999,779.0708629999999,809.046349,Someone is dressing perhaps a little strangley with a wide cap. They say they hate themselves. Someone else calls questioningly "Big?" ,0,,,,,,,,,,,,,,,,,,,,,,,,730.9027336250001,730.9094667080001,730.9094667080001,730.9094667080001,733.686022458,1,[2.7814552090000007],[2.781457875000001],752.0985775419999,752.103673375,779.042823625,1,[26.943762167000045],[26.943764750000014],,,,,,,p_10,001,2024-05-10_09h25.52.815,speech_rate,2023.2.3,None,2024-05-10 09h26.05.860384 -0700,
,Someday_16_condition-2x.wav,Someday__Someday__Maybe__Unabridged___File_010_of_116_0.wav,When he tries to describe the story to me I find myself counting the planks in our floor weighing the merits of vegetable versus scallion cream cheese But I'm sure it's better than it sounds How's my hair I'm taking an apartment wide poll for some reason this time my question is accompanied by a weird sort of tap step Flourish in order to sell it I hate myself I must be stopped Big he says hopefully huh,What does the narrator do while the person describes the story to her?,A. Counts the planks in the floor,B. Weighs the merits of cream cheese,C. Dances a tap step,D. Flips her hair dramatically,A. Counts the planks in the floor,yes,13.79,,,,,,,,,,,,,0,4,4,4,0,0,0,0,,,,,,,,,,,,,,,,,,,,,,,,,,,,,,,,,,,,,,,,,,,,,,,,,,,,,,,,,,,,,,,,,,,,,,,,,,,,,,,,,,,,,,,,,,p_10,001,2024-05-10_09h25.52.815,speech_rate,2023.2.3,None,2024-05-10 09h26.05.860384 -0700,
,Someday_16_condition-2x.wav,Someday__Someday__Maybe__Unabridged___File_010_of_116_0.wav,When he tries to describe the story to me I find myself counting the planks in our floor weighing the merits of vegetable versus scallion cream cheese But I'm sure it's better than it sounds How's my hair I'm taking an apartment wide poll for some reason this time my question is accompanied by a weird sort of tap step Flourish in order to sell it I hate myself I must be stopped Big he says hopefully huh,What does the narrator do while the person describes the story to her?,A. Counts the planks in the floor,B. Weighs the merits of cream cheese,C. Dances a tap step,D. Flips her hair dramatically,A. Counts the planks in the floor,yes,13.79,,,,,,,,,,,,,0,4,4,4,,,,,,,,,,,,,,,,,,,,,,,,,,,,,,,,,,,,,,,,,,,,,,,,,,,,,809.046736708,818.347880625,0,,,1,9.290039834000027,9.290042334000077,0,,,0,,,,,,,,,,,,,,,,,,,,,,,,,,,,,,p_10,001,2024-05-10_09h25.52.815,speech_rate,2023.2.3,None,2024-05-10 09h26.05.860384 -0700,
,Someday_124_condition-4x.wav,Someday__Someday__Maybe__Unabridged___File_054_of_116_4.wav,If I come home to you eating a pint of Haagen Dazs and watching When Harry Met Sally I'm calling the police What are they going to do arrest me for being a cliché So when the phone rings at 1130 that morning I lunge for it grabbing it on the second ring I'll pretend to Jane I'm in good spirits I'll act peppy as if I've been up for hours Hello this is Richard calling from Absolute Artists Is Franny there,Who calls the main character from Absolute Artists?,A. Barney Sparks,B. Richard,C. Jane,D. Dan,B. Richard,no,7.1925,,,,,,,,,,,,,0,5,5,5,,,,,,,,,818.355539333,,,,,,,,,,,,,,,820.0414667079999,820.0569319586666,820.0553340829999,827.241017458,827.2501818329999,827.2606395,827.5284006249999,827.5284006249999,835.725223958,836.436149208,1.8333333333333335,8.439496374999976,1,[0.7205937090000134],[0.7205958340000507],,,,,,,,,,,,,,,836.436562292,843.3988125420001,0,,,1,6.955434833000027,6.955437500000016,0,,,0,,,,,,,,,,818.348476417,818.355539333,818.355539333,818.355539333,820.0411783330001,1,[1.6909226249999847],[1.6909288750000542],,,,,,,,,,,,,p_10,001,2024-05-10_09h25.52.815,speech_rate,2023.2.3,None,2024-05-10 09h26.05.860384 -0700,
,Someday_125_condition-2x.wav,Someday__Someday__Maybe__Unabridged___File_054_of_116_5.wav,I sit up as if he might be able to see through the telephone that I was lying down at an undignified hour still in the shorts and tank top I slept in I clear my throat and try to make my voice sound more awake It's me It's her That doesn't sound right It is I Hello I Did I wake you up No I'm awake Have a cold Oh shoot Is it a really bad one Joe has an audition for you I've just made an extremely speedy recovery Great Great,What does the narrator say she has?,A. A cold,B. A headache,C. A sore throat,D. A flu,A. A cold,no,14.96496875,,,,,,,,,,,,,0,6,6,6,,,,,,,,,843.406352,,,,,,,,,,,,,,,844.098274042,844.1305592083334,844.121480625,859.0927134579999,859.097522042,859.108753708,859.310699958,859.310699958,863.597858542,865.110733625,6.083333333333333,4.465011875000073,1,[1.5214872909999713],[1.5214897910000218],,,,,,,,,,,,,,,865.1111872920001,867.512264208,1,2.3935309579999284,2.3935337499999605,0,,,0,,,0,,,,,,,,,,843.3992914170001,843.406352,843.406352,843.406352,844.098084708,1,[0.6970303749999402],[0.6970332079999935],,,,,,,,,,,,,p_10,001,2024-05-10_09h25.52.815,speech_rate,2023.2.3,None,2024-05-10 09h26.05.860384 -0700,
,Someday_27_condition.wav,Someday__Someday__Maybe__Unabridged___File_016_of_116_0.wav,And maybe we'll go out sometime and maybe we'll fall in love and someday we'll happen to be walking down this very street and he'll say remember that day when we accidentally ran into each other here But none of that can happen if he walks by me on the street today I make my way across 45th Street and hover near a trash can digging in my bag as if I'm looking for something I need to throw out waiting for his light to change Finally I can see him start to walk across the street I look away so he doesn't see me staring at him and when I glance up again I've lost him in the crowd,What is the narrator's hope regarding the person she encounters on the street?,A. To avoid meeting them,B. To have a chance encounter,C. To never see them again,D. To get their phone number,B. To have a chance encounter,no,29.51,,,,,,,,,,,,,0,7,7,7,,,,,,,,,867.5257032500001,,,,,,,,,,,,,,,868.860425583,868.8929484583332,868.8922937919999,898.4117732499999,898.413529875,898.435068625,898.648202542,898.648202542,902.9217082079999,903.587243083,9.2,4.459582083999976,1,[0.6747528339999462],[0.6747555839999677],,,,,,,,,,,,,,,903.587691917,912.132378083,1,8.535028333000014,8.535031292000099,0,,,0,,,0,,,,,,,,,,867.5127935,867.5257032500001,867.5257032500001,867.5257032500001,868.8602187920001,1,[1.345085541000003],[1.3450881250000748],,,,,,,,,,,,,p_10,001,2024-05-10_09h25.52.815,speech_rate,2023.2.3,None,2024-05-10 09h26.05.860384 -0700,
,Someday_66_condition-2x.wav,Someday__Someday__Maybe__Unabridged___File_032_of_116_1.wav,These are perfect Let's Polaroid these two we might have to cut them in the back though She says you guys really shouldn't fudge your sizes you know she attempts a smile but I can tell she's irritated I Didn't fudge my sizes I say as nicely as I can at least I don't think I did Well what jean size did you give them Eight maybe in inches I mean I'm not sure I didn't know they made pants in sizes like that,What does the woman suggest regarding jeans sizes?,A. The narrator should not fudge her size,B. The narrator should avoid mentioning her size,C. Sizes like eight inches don't exist,D. Smiles are essential for jeans fittings,A. The narrator should not fudge her size,no,14.345,,,,,,,,,,,,,0,8,8,8,,,,,,,,,912.1453468330001,,,,,,,,,,,,,,,915.50449275,915.5367146253334,915.528547208,929.869828958,929.883388167,929.9056265419999,930.1155060420001,930.1155060420001,935.468825083,936.131421042,9.983333333333334,5.538537915999996,1,[0.6718359999999848],[0.6718386250000776],,,,,,,,,,,,,,,936.1318905420001,945.437870083,1,9.29512324999996,9.295129999999972,0,,,0,,,0,,,,,,,,,,912.1329363330001,912.1453468330001,912.1453468330001,912.1453468330001,915.504282208,1,[3.370893207999984],[3.3708959580000055],,,,,,,,,,,,,p_10,001,2024-05-10_09h25.52.815,speech_rate,2023.2.3,None,2024-05-10 09h26.05.860384 -0700,
,Someday_51_condition.wav,Someday__Someday__Maybe__Unabridged___File_025_of_116_4.wav,And he says Dina pauses as if the next part of the story is particularly hard to tell And he says only two things will happen with this One it's a giant hit and you're thanking me every year at the Emmys Or two they'll make the pilot it won't work it'll never air There's no scenario in between If for some reason they put this on the air and it isn't 100 fantastic he said it'll never last Dina and Leighton say together Then Dina slaps her palm to her forehead as if she still can't believe it,What does Dina do after telling the story?,A. She shakes her head,B. She slaps her palm to her forehead,C. She cries,D. She sits in silence,B. She slaps her palm to her forehead,no,29.91996875,,,,,,,,,,,,,0,9,9,9,,,,,,,,,945.4455378749999,,,,,,,,,,,,,,,947.181886958,947.2308154579998,947.222169417,977.138186167,977.152904458,977.1748077499999,977.386297542,977.386297542,980.8042680419999,981.556621792,9.075,3.605120957999816,1,[0.7615093340000385],[0.7615115420001075],,,,,,,,,,,,,,,981.5570768329999,985.7580377919999,0,,,1,4.1931414579999,4.193143833000022,0,,,0,,,,,,,,,,945.438453042,945.4455378749999,945.4455378749999,945.4455378749999,947.1816491249999,1,[1.7414232920000359],[1.7414260420000574],,,,,,,,,,,,,p_10,001,2024-05-10_09h25.52.815,speech_rate,2023.2.3,None,2024-05-10 09h26.05.860384 -0700,
,Someday_24_condition.wav,Someday__Someday__Maybe__Unabridged___File_015_of_116_0.wav,Thanks I say and then for no reason Any adjustments Stupid stupid Don't ask to do it again when you don't know what you did in the first place They both cock their heads at the same angle like two puppies in a pet store window Then they nod to each other again Sure yeah let's do one more just for kicks Yeah I mean that was great but let's in this one really have fun with it but also take it seriously like you did Yeah serious but fun like you're talking to your best friend Yeah like you're sharing a secret with your best friend,What do the casting directors suggest after the narrator's audition?,A. They compliment her performance,B. They ask her to do it in a more fun but serious way,C. They reject her immediately,D. They offer her the role,B. They ask her to do it in a more fun but serious way,yes,29.85,,,,,,,,,,,,,0,10,10,10,0,0,0,0,0,0,0,0,1023.7183889999999,,,,,,,,,,,,,,,986.58425375,986.6164666663333,986.615525917,1016.457193833,1016.470045542,1016.4910822919999,1016.6914950829998,1016.6914950829998,1018.9785529579999,1020.057752125,10,2.4601996250000866,1,[1.088381125000069],[1.088383457999953],,,,,,,1023.7043160829999,1023.7183889999999,1023.7183889999999,1053.704342542,Someone is doing an audition and asks if the person judging has any adjustments the thinks it stupid she asks they tell her do it serious but fun like shes talking to her best frined,0,,,,,,,,,,,,,,,,,,,,,,,,985.7585174169999,985.765194375,985.765194375,985.765194375,986.5840211249999,1,[0.8237271670000155],[0.8237298750000264],1020.058255292,1020.067558833,1023.7034952499998,1,[3.6447633329999007],[3.644766082999922],1053.7242570419999,1053.7242570419999,,,,,p_10,001,2024-05-10_09h25.52.815,speech_rate,2023.2.3,None,2024-05-10 09h26.05.860384 -0700,
,Someday_24_condition.wav,Someday__Someday__Maybe__Unabridged___File_015_of_116_0.wav,Thanks I say and then for no reason Any adjustments Stupid stupid Don't ask to do it again when you don't know what you did in the first place They both cock their heads at the same angle like two puppies in a pet store window Then they nod to each other again Sure yeah let's do one more just for kicks Yeah I mean that was great but let's in this one really have fun with it but also take it seriously like you did Yeah serious but fun like you're talking to your best friend Yeah like you're sharing a secret with your best friend,What do the casting directors suggest after the narrator's audition?,A. They compliment her performance,B. They ask her to do it in a more fun but serious way,C. They reject her immediately,D. They offer her the role,B. They ask her to do it in a more fun but serious way,yes,29.85,,,,,,,,,,,,,0,10,10,10,0,0,0,0,,,,,,,,,,,,,,,,,,,,,,,,,,,,,,,,,,,,,,,,,,,,,,,,,,,,,,,,,,,,,,,,,,,,,,,,,,,,,,,,,,,,,,,,,,p_10,001,2024-05-10_09h25.52.815,speech_rate,2023.2.3,None,2024-05-10 09h26.05.860384 -0700,
,Someday_24_condition.wav,Someday__Someday__Maybe__Unabridged___File_015_of_116_0.wav,Thanks I say and then for no reason Any adjustments Stupid stupid Don't ask to do it again when you don't know what you did in the first place They both cock their heads at the same angle like two puppies in a pet store window Then they nod to each other again Sure yeah let's do one more just for kicks Yeah I mean that was great but let's in this one really have fun with it but also take it seriously like you did Yeah serious but fun like you're talking to your best friend Yeah like you're sharing a secret with your best friend,What do the casting directors suggest after the narrator's audition?,A. They compliment her performance,B. They ask her to do it in a more fun but serious way,C. They reject her immediately,D. They offer her the role,B. They ask her to do it in a more fun but serious way,yes,29.85,,,,,,,,,,,,,0,10,10,10,,,,,,,,,,,,,,,,,,,,,,,,,,,,,,,,,,,,,,,,,,,,,,,,,,,,,1053.704807292,1063.114845375,0,,,1,9.399867332999975,9.399870208000038,0,,,0,,,,,,,,,,,,,,,,,,,,,,,,,,,,,,p_10,001,2024-05-10_09h25.52.815,speech_rate,2023.2.3,None,2024-05-10 09h26.05.860384 -0700,
,Someday_39_condition.wav,Someday__Someday__Maybe__Unabridged___File_021_of_116_1.wav,People who are admired for holding it together are not people who are about to get agents They're people who are recovering from cancer or undergoing a murder trial And I dropped a section I add hoping he'll say he didn't notice Yeah I know but I only know because I'm obsessed with that guy's work No one will dock you for that It's not exactly a glowing review but he doesn't seem totally horrified Still he's avoiding the thing I most want to know But when I fell I mean how bad was it,What does the narrator hope the person they are talking to will say?,A. That he didn't notice the mistake,B. That he noticed the dropped section,C. That he wants to be an agent,D. That he's obsessed with the narrator's work,A. That he didn't notice the mistake,yes,29.17996875,,,,,,,,,,,,,0,11,11,11,0,0,0,0,0,0,0,0,1106.7033476249999,,,,,,,,,,,,,,,1067.630585833,1067.6608741253333,1067.661608875,1096.839815333,1096.841240167,1096.863360833,1097.121670042,1097.121670042,1101.916306333,1102.6521989169999,9.0,5.026014499999974,1,[0.7450262499999099],[0.7450283749999471],,,,,,,1106.6919364169999,1106.7033476249999,1106.7033476249999,1136.692163,"narrator is talking about how she is holding it together and that is not how you describe people who are about to ger agents she mentions she dropped a section in hopes no one noticed, but he did notice. ",0,,,,,,,,,,,,,,,,,,,,,,,,1063.115449167,1063.123335083,1063.123335083,1063.123335083,1067.630244708,1,[4.511339874999976],[4.511353000000099],1102.652683333,1102.6575216249998,1106.69109525,1,[4.037908000000016],[4.037910832999842],1136.710316833,1136.710316833,,,,,p_10,001,2024-05-10_09h25.52.815,speech_rate,2023.2.3,None,2024-05-10 09h26.05.860384 -0700,
,Someday_39_condition.wav,Someday__Someday__Maybe__Unabridged___File_021_of_116_1.wav,People who are admired for holding it together are not people who are about to get agents They're people who are recovering from cancer or undergoing a murder trial And I dropped a section I add hoping he'll say he didn't notice Yeah I know but I only know because I'm obsessed with that guy's work No one will dock you for that It's not exactly a glowing review but he doesn't seem totally horrified Still he's avoiding the thing I most want to know But when I fell I mean how bad was it,What does the narrator hope the person they are talking to will say?,A. That he didn't notice the mistake,B. That he noticed the dropped section,C. That he wants to be an agent,D. That he's obsessed with the narrator's work,A. That he didn't notice the mistake,yes,29.17996875,,,,,,,,,,,,,0,11,11,11,0,0,0,0,,,,,,,,,,,,,,,,,,,,,,,,,,,,,,,,,,,,,,,,,,,,,,,,,,,,,,,,,,,,,,,,,,,,,,,,,,,,,,,,,,,,,,,,,,p_10,001,2024-05-10_09h25.52.815,speech_rate,2023.2.3,None,2024-05-10 09h26.05.860384 -0700,
,Someday_39_condition.wav,Someday__Someday__Maybe__Unabridged___File_021_of_116_1.wav,People who are admired for holding it together are not people who are about to get agents They're people who are recovering from cancer or undergoing a murder trial And I dropped a section I add hoping he'll say he didn't notice Yeah I know but I only know because I'm obsessed with that guy's work No one will dock you for that It's not exactly a glowing review but he doesn't seem totally horrified Still he's avoiding the thing I most want to know But when I fell I mean how bad was it,What does the narrator hope the person they are talking to will say?,A. That he didn't notice the mistake,B. That he noticed the dropped section,C. That he wants to be an agent,D. That he's obsessed with the narrator's work,A. That he didn't notice the mistake,yes,29.17996875,,,,,,,,,,,,,0,11,11,11,,,,,,,,,,,,,,,,,,,,,,,,,,,,,,,,,,,,,,,,,,,,,,,,,,,,,1136.692573042,1145.3666638749999,1,8.664705334000018,8.664707542000087,0,,,0,,,0,,,,,,,,,,,,,,,,,,,,,,,,,,,,,,p_10,001,2024-05-10_09h25.52.815,speech_rate,2023.2.3,None,2024-05-10 09h26.05.860384 -0700,
,Someday_10_condition.wav,Someday__Someday__Maybe__Unabridged___File_008_of_116_2.wav,I've worn this combination so many times before that today my all black outfit feels a little boring a little blah What would Jane do I think to myself and pull a chunky brown leather belt from the top shelf of the closet slinging it low around my hips Finally taking weather and product into consideration I take the top part of my hair and tie it into a small black velvet scrunchie on top of my head The phone begins to ring from its place on the landing between my room and Jane's Hi Dad,What does the narrator wear to their class after the audition?,A. A black dress,B. A white t-shirt,C. A red skirt,D. A brown leather belt,D. A brown leather belt,yes,28.93,,,,,,,,,,,,,0,12,12,12,0,0,0,0,0,0,0,0,1188.8392751249999,,,,,,,,,,,,,,,1147.577392208,1147.6094898333333,1147.608331,1176.5443062499999,1176.54686425,1176.56870525,1176.8285530419998,1176.8285530419998,1179.99886,1181.323768208,9.016666666666666,3.4054592919999322,1,[1.3339464999999109],[1.3339489159998266],,,,,,,1188.828007833,1188.8392751249999,1188.8392751249999,1218.8258509999998,A person is getting ready to perhaps go someone where and asks themselves what would JANE do. THey are getting dressed puting on a chunky brown belt and a black velvet hair ,0,,,,,,,,,,,,,,,,,,,,,,,,1145.3671312919998,1145.37355075,1145.37355075,1145.37355075,1147.5771212079999,1,[2.2085305420000623],[2.2085331670000414],1181.324312833,1181.328885375,1188.827349583,1,[7.502510583000003],[7.502513417000046],1218.845162375,1218.845162375,,,,,p_10,001,2024-05-10_09h25.52.815,speech_rate,2023.2.3,None,2024-05-10 09h26.05.860384 -0700,
,Someday_10_condition.wav,Someday__Someday__Maybe__Unabridged___File_008_of_116_2.wav,I've worn this combination so many times before that today my all black outfit feels a little boring a little blah What would Jane do I think to myself and pull a chunky brown leather belt from the top shelf of the closet slinging it low around my hips Finally taking weather and product into consideration I take the top part of my hair and tie it into a small black velvet scrunchie on top of my head The phone begins to ring from its place on the landing between my room and Jane's Hi Dad,What does the narrator wear to their class after the audition?,A. A black dress,B. A white t-shirt,C. A red skirt,D. A brown leather belt,D. A brown leather belt,yes,28.93,,,,,,,,,,,,,0,12,12,12,0,0,0,0,,,,,,,,,,,,,,,,,,,,,,,,,,,,,,,,,,,,,,,,,,,,,,,,,,,,,,,,,,,,,,,,,,,,,,,,,,,,,,,,,,,,,,,,,,p_10,001,2024-05-10_09h25.52.815,speech_rate,2023.2.3,None,2024-05-10 09h26.05.860384 -0700,
,Someday_10_condition.wav,Someday__Someday__Maybe__Unabridged___File_008_of_116_2.wav,I've worn this combination so many times before that today my all black outfit feels a little boring a little blah What would Jane do I think to myself and pull a chunky brown leather belt from the top shelf of the closet slinging it low around my hips Finally taking weather and product into consideration I take the top part of my hair and tie it into a small black velvet scrunchie on top of my head The phone begins to ring from its place on the landing between my room and Jane's Hi Dad,What does the narrator wear to their class after the audition?,A. A black dress,B. A white t-shirt,C. A red skirt,D. A brown leather belt,D. A brown leather belt,yes,28.93,,,,,,,,,,,,,0,12,12,12,,,,,,,,,,,,,,,,,,,,,,,,,,,,,,,,,,,,,,,,,,,,,,,,,,,,,1218.82630875,1223.6015292499999,0,,,0,,,0,,,1,4.765144125000006,4.765147249999927,,,,,,,,,,,,,,,,,,,,,,,,,,,,p_10,001,2024-05-10_09h25.52.815,speech_rate,2023.2.3,None,2024-05-10 09h26.05.860384 -0700,
,Someday_59_condition-4x.wav,Someday__Someday__Maybe__Unabridged___File_028_of_116_1.wav,It's all sort of a a vacuum isn't it Yes it can be I guess Everett isn't saying anything I haven't thought before but there's something so depressing in her description Something less than comforting in her attempt to be understanding in My work ever it says in mergers and amalgamations We're seeing a real boom Lbo's are still the cornerstone of the business obviously but the increase in global capital flows is translating to even more revenue,What does Everett's description sound like to the narrator?,A. Comforting,B. Understanding,C. Concerned,D. Depressing,D. Depressing,yes,7.4975,,,,,,,,,,,,,0,13,13,13,0,0,0,0,0,0,0,0,1240.732326542,,,,,,,,,,,,,,,1225.806877792,1225.8192404166666,1225.820462292,1233.314131208,1233.319303,1233.33052125,1233.593454375,1233.593454375,1235.1649015,1236.964888042,3.9583333333333335,1.8098261249999723,1,[1.8091942089999975],[1.809196459000077],,,,,,,1240.7194769579999,1240.732326542,1240.732326542,1259.966855042,In my work... yes... we are seeing a real boom,1,[19.243703207999943],[19.2437063750001],,,,,,,,,,,,,,,,,,,,,,1223.602152917,1223.613013833,1223.613013833,1223.613013833,1225.806585292,1,[2.203601082999967],[2.2036125829999946],1236.965442833,1236.9708565829999,1240.7186413749998,1,[3.752116874999956],[3.7521229169999515],,,,,,,p_10,001,2024-05-10_09h25.52.815,speech_rate,2023.2.3,None,2024-05-10 09h26.05.860384 -0700,
,Someday_59_condition-4x.wav,Someday__Someday__Maybe__Unabridged___File_028_of_116_1.wav,It's all sort of a a vacuum isn't it Yes it can be I guess Everett isn't saying anything I haven't thought before but there's something so depressing in her description Something less than comforting in her attempt to be understanding in My work ever it says in mergers and amalgamations We're seeing a real boom Lbo's are still the cornerstone of the business obviously but the increase in global capital flows is translating to even more revenue,What does Everett's description sound like to the narrator?,A. Comforting,B. Understanding,C. Concerned,D. Depressing,D. Depressing,yes,7.4975,,,,,,,,,,,,,0,13,13,13,0,0,0,0,,,,,,,,,,,,,,,,,,,,,,,,,,,,,,,,,,,,,,,,,,,,,,,,,,,,,,,,,,,,,,,,,,,,,,,,,,,,,,,,,,,,,,,,,,p_10,001,2024-05-10_09h25.52.815,speech_rate,2023.2.3,None,2024-05-10 09h26.05.860384 -0700,
,Someday_59_condition-4x.wav,Someday__Someday__Maybe__Unabridged___File_028_of_116_1.wav,It's all sort of a a vacuum isn't it Yes it can be I guess Everett isn't saying anything I haven't thought before but there's something so depressing in her description Something less than comforting in her attempt to be understanding in My work ever it says in mergers and amalgamations We're seeing a real boom Lbo's are still the cornerstone of the business obviously but the increase in global capital flows is translating to even more revenue,What does Everett's description sound like to the narrator?,A. Comforting,B. Understanding,C. Concerned,D. Depressing,D. Depressing,yes,7.4975,,,,,,,,,,,,,0,13,13,13,,,,,,,,,,,,,,,,,,,,,,,,,,,,,,,,,,,,,,,,,,,,,,,,,,,,,1259.967336667,1265.233509667,0,,,0,,,0,,,1,5.256554625000035,5.25656062500002,,,,,,,,,,,,,,,,,,,,,,,,,,,,p_10,001,2024-05-10_09h25.52.815,speech_rate,2023.2.3,None,2024-05-10 09h26.05.860384 -0700,
,Someday_28_condition-2x.wav,Someday__Someday__Maybe__Unabridged___File_017_of_116_0.wav,He has some sort of accent almost a drawl He's from the south somewhere Maybe he grew up on a farm in Texas or Georgia Maybe he had chores in the barn every day and helped his father harvest corn He still hasn't looked away from me He stands perfectly still not shifting at all I can feel myself rocking back and forth on my feet I try to stay steady like he does but it's impossible for me to do I really like your work in class I say ducking my head Oh yeah,How does the narrator feel about the person she encounters on the street?,A. She dislikes them,B. She is indifferent,C. She admires their work,D. She is terrified,C. She admires their work,yes,14.075,,,,,,,,,,,,,0,14,14,14,0,0,0,0,0,0,0,0,1286.9293862499999,,,,,,,,,,,,,,,1267.7001518749998,1267.7158071666665,1267.7195765,1281.8003724999999,1281.8027729579999,1281.8139899999999,1282.059247292,1282.059247292,1284.155590958,1284.784796625,8.925,2.3171183340000425,1,[0.6382958340000187],[0.6382982919999449],,,,,,,1286.9183686249999,1286.9293862499999,1286.9293862499999,1316.91826875,"A person notices a guys accent, it southern she is a bit nervous and rocking on her feet instead of staying steady like him she says she likes his classwork. he replys ahh",0,,,,,,,,,,,,,,,,,,,,,,,,1265.234057417,1265.241261458,1265.241261458,1265.241261458,1267.6999121669999,1,[2.463968374999922],[2.4639709579998907],1284.785345583,1284.790425208,1286.917591292,1,[2.131574458000159],[2.131577042000117],,,,,,,p_10,001,2024-05-10_09h25.52.815,speech_rate,2023.2.3,None,2024-05-10 09h26.05.860384 -0700,
,Someday_28_condition-2x.wav,Someday__Someday__Maybe__Unabridged___File_017_of_116_0.wav,He has some sort of accent almost a drawl He's from the south somewhere Maybe he grew up on a farm in Texas or Georgia Maybe he had chores in the barn every day and helped his father harvest corn He still hasn't looked away from me He stands perfectly still not shifting at all I can feel myself rocking back and forth on my feet I try to stay steady like he does but it's impossible for me to do I really like your work in class I say ducking my head Oh yeah,How does the narrator feel about the person she encounters on the street?,A. She dislikes them,B. She is indifferent,C. She admires their work,D. She is terrified,C. She admires their work,yes,14.075,,,,,,,,,,,,,0,14,14,14,0,0,0,0,,,,,,,,,,,,,,,,,,,,,,,,,,,,,,,,,,,,,,,,,,,,,,,,,,,,,,,,,,,,,,,,,,,,,,,,,,,,,,,,,,,,,,,,,,p_10,001,2024-05-10_09h25.52.815,speech_rate,2023.2.3,None,2024-05-10 09h26.05.860384 -0700,
,Someday_28_condition-2x.wav,Someday__Someday__Maybe__Unabridged___File_017_of_116_0.wav,He has some sort of accent almost a drawl He's from the south somewhere Maybe he grew up on a farm in Texas or Georgia Maybe he had chores in the barn every day and helped his father harvest corn He still hasn't looked away from me He stands perfectly still not shifting at all I can feel myself rocking back and forth on my feet I try to stay steady like he does but it's impossible for me to do I really like your work in class I say ducking my head Oh yeah,How does the narrator feel about the person she encounters on the street?,A. She dislikes them,B. She is indifferent,C. She admires their work,D. She is terrified,C. She admires their work,yes,14.075,,,,,,,,,,,,,0,14,14,14,,,,,,,,,,,,,,,,,,,,,,,,,,,,,,,,,,,,,,,,,,,,,,,,,,,,,1316.918635167,1320.546224875,0,,,0,,,1,3.6183833750001213,3.6183862080001745,0,,,,,,,,,,,,,,,,,,,,,,,,,,,,,,p_10,001,2024-05-10_09h25.52.815,speech_rate,2023.2.3,None,2024-05-10 09h26.05.860384 -0700,
,Someday_53_condition-2x.wav,Someday__Someday__Maybe__Unabridged___File_026_of_116_1.wav,It can be dangerous to take the subway all the way to Brooklyn this late I should take a cab she's right but I'm too embarrassed to tell her I only have about 8 in cash on me and probably less than 20 in my bank account so I can't even go to a cash machine I'll get tips and a tiny paycheck at my shift at the club tomorrow night which I'll take directly to the check cashing place on the skeevy part of Fifth Avenue in Brooklyn which will charge me almost a quarter of the check to turn it into immediate cash but I can't wait the five to seven days for the bank to clear it or the electric bill will bounce,Why is the narrator embarrassed to take a cab?,A. She doesn't have enough cash,B. She doesn't want to spend money,C. She prefers the subway,D. She doesn't know how to hail a cab,A. She doesn't have enough cash,yes,14.74,,,,,,,,,,,,,0,15,15,15,0,0,0,0,0,0,0,0,1341.149679833,,,,,,,,,,,,,,,1321.3695491669998,1321.4021158753333,1321.391825958,1336.126819875,1336.143463208,1336.154556833,1336.4160084169998,1336.4160084169998,1338.937848042,1339.909897417,8.825,2.758399124999869,1,[0.9813572079999631],[0.9813594170000215],,,,,,,1341.138435458,1341.149679833,1341.149679833,1371.144072417,A person is embarrsed that they only have 8 dollars in their pocket and cant afford to ride a cab. plus they only have 20 dolalrs in the bank and know their check will bounce if they try to pay ,0,,,,,,,,,,,,,,,,,,,,,,,,1320.5468295419998,1320.554536708,1320.554536708,1320.554536708,1321.3693384169999,1,[0.8206995829998505],[0.8207021670000358],1339.910424875,1339.918858,1341.1375795,1,[1.2264426669999011],[1.2264452499998697],1371.163078958,1371.163078958,,,,,p_10,001,2024-05-10_09h25.52.815,speech_rate,2023.2.3,None,2024-05-10 09h26.05.860384 -0700,
,Someday_53_condition-2x.wav,Someday__Someday__Maybe__Unabridged___File_026_of_116_1.wav,It can be dangerous to take the subway all the way to Brooklyn this late I should take a cab she's right but I'm too embarrassed to tell her I only have about 8 in cash on me and probably less than 20 in my bank account so I can't even go to a cash machine I'll get tips and a tiny paycheck at my shift at the club tomorrow night which I'll take directly to the check cashing place on the skeevy part of Fifth Avenue in Brooklyn which will charge me almost a quarter of the check to turn it into immediate cash but I can't wait the five to seven days for the bank to clear it or the electric bill will bounce,Why is the narrator embarrassed to take a cab?,A. She doesn't have enough cash,B. She doesn't want to spend money,C. She prefers the subway,D. She doesn't know how to hail a cab,A. She doesn't have enough cash,yes,14.74,,,,,,,,,,,,,0,15,15,15,0,0,0,0,,,,,,,,,,,,,,,,,,,,,,,,,,,,,,,,,,,,,,,,,,,,,,,,,,,,,,,,,,,,,,,,,,,,,,,,,,,,,,,,,,,,,,,,,,p_10,001,2024-05-10_09h25.52.815,speech_rate,2023.2.3,None,2024-05-10 09h26.05.860384 -0700,
,Someday_53_condition-2x.wav,Someday__Someday__Maybe__Unabridged___File_026_of_116_1.wav,It can be dangerous to take the subway all the way to Brooklyn this late I should take a cab she's right but I'm too embarrassed to tell her I only have about 8 in cash on me and probably less than 20 in my bank account so I can't even go to a cash machine I'll get tips and a tiny paycheck at my shift at the club tomorrow night which I'll take directly to the check cashing place on the skeevy part of Fifth Avenue in Brooklyn which will charge me almost a quarter of the check to turn it into immediate cash but I can't wait the five to seven days for the bank to clear it or the electric bill will bounce,Why is the narrator embarrassed to take a cab?,A. She doesn't have enough cash,B. She doesn't want to spend money,C. She prefers the subway,D. She doesn't know how to hail a cab,A. She doesn't have enough cash,yes,14.74,,,,,,,,,,,,,0,15,15,15,,,,,,,,,,,,,,,,,,,,,,,,,,,,,,,,,,,,,,,,,,,,,,,,,,,,,1371.144534625,1379.621488792,1,8.467407249999951,8.46740950000003,0,,,0,,,0,,,,,,,,,,,,,,,,,,,,,,,,,,,,,,p_10,001,2024-05-10_09h25.52.815,speech_rate,2023.2.3,None,2024-05-10 09h26.05.860384 -0700,
,Someday_33_condition-4x.wav,Someday__Someday__Maybe__Unabridged___File_018_of_116_2.wav,Well I wouldn't say I'd be amazing in it although thanks for saying so I think I'd just be okay in it I mean it is sort of right in my wheelhouse but I think you'd actually be great in it I'm serious I mean I could do it I guess and I probably would do it if they asked but I think my problem with it isn't the play itself but the guy who's in it now What's his name Anyway it doesn't matter I just think he's not really acting so much as just smoldering or something up there and I'm like buddy you can't just play every scene sexy I mean that's not an active choice,What issue does the narrator have with the actor currently in the play?,A. She thinks he's too active,B. She believes he's too serious,C. She thinks he's smoldering too much,D. She has no issue with him,C. She thinks he's smoldering too much,no,7.6375,,,,,,,,,,,,,0,16,16,16,,,,,,,,,1379.628109667,,,,,,,,,,,,,,,1382.256890375,1382.2723278746666,1382.2722744999999,1389.906705458,1389.912540583,1389.923759542,1390.1907946249999,1390.1907946249999,1392.008069875,1392.9293270419998,1.0583333333333333,2.0593334170000617,1,[0.9305314169998837],[0.9305337089999739],,,,,,,,,,,,,,,1392.929746083,1399.190740458,0,,,0,,,1,6.25224883299984,6.252251624999872,0,,,,,,,,,,1379.6219308749999,1379.628109667,1379.628109667,1379.628109667,1382.256622125,1,[2.633107208999945],[2.633109916999956],,,,,,,,,,,,,p_10,001,2024-05-10_09h25.52.815,speech_rate,2023.2.3,None,2024-05-10 09h26.05.860384 -0700,
,Someday_2_condition-4x.wav,Someday__Someday__Maybe__Unabridged___File_004_of_116_1.wav,Successful actresses are disciplined people who wake up early to focus on their craft I told myself even ones who still make their living as waitresses like me I started leaving the alarm clock on the landing between Jane's room and mine so I'd have to actually get out of bed in order to turn it off instead of hitting snooze over and over like I normally do I also resolved to quit smoking again to stop losing purses wallets and umbrellas and to not eat any more cheese puffs not even on special occasions,What resolution does the narrator make about her lifestyle to become a successful actress?,A. To wake up early and focus on her craft,B. To quit smoking and stop losing personal items,"C. To stop eating cheese puffs, even on special occasions",D. All of the above,D. All of the above,yes,7.5875,,,,,,,,,,,,,0,17,17,17,0,0,0,0,0,0,0,0,1422.207851292,,,,,,,,,,,,,,,1408.114771292,1408.1300437496666,1408.1288585,1415.724720583,1415.7279690829998,1415.739205792,1415.9441077919998,1415.9441077919998,1417.608745792,1420.586621375,1,1.8449497920000795,1,[2.9870983749999596],[2.9871007919998647],,,,,,,1422.194268042,1422.207851292,1422.207851292,1438.626870583,some people take off. I tried to reassure myself,1,[16.42953691699995],[16.429540207999935],,,,,,,,,,,,,,,,,,,,,,1399.1912707499998,1399.198223125,1399.198223125,1399.198223125,1408.114525458,1,[8.921602458000052],[8.921605500000169],1420.587128417,1420.592686125,1422.193494208,1,[1.6055389580001247],[1.6055417080001462],,,,,,,p_10,001,2024-05-10_09h25.52.815,speech_rate,2023.2.3,None,2024-05-10 09h26.05.860384 -0700,
,Someday_2_condition-4x.wav,Someday__Someday__Maybe__Unabridged___File_004_of_116_1.wav,Successful actresses are disciplined people who wake up early to focus on their craft I told myself even ones who still make their living as waitresses like me I started leaving the alarm clock on the landing between Jane's room and mine so I'd have to actually get out of bed in order to turn it off instead of hitting snooze over and over like I normally do I also resolved to quit smoking again to stop losing purses wallets and umbrellas and to not eat any more cheese puffs not even on special occasions,What resolution does the narrator make about her lifestyle to become a successful actress?,A. To wake up early and focus on her craft,B. To quit smoking and stop losing personal items,"C. To stop eating cheese puffs, even on special occasions",D. All of the above,D. All of the above,yes,7.5875,,,,,,,,,,,,,0,17,17,17,0,0,0,0,,,,,,,,,,,,,,,,,,,,,,,,,,,,,,,,,,,,,,,,,,,,,,,,,,,,,,,,,,,,,,,,,,,,,,,,,,,,,,,,,,,,,,,,,,p_10,001,2024-05-10_09h25.52.815,speech_rate,2023.2.3,None,2024-05-10 09h26.05.860384 -0700,
,Someday_2_condition-4x.wav,Someday__Someday__Maybe__Unabridged___File_004_of_116_1.wav,Successful actresses are disciplined people who wake up early to focus on their craft I told myself even ones who still make their living as waitresses like me I started leaving the alarm clock on the landing between Jane's room and mine so I'd have to actually get out of bed in order to turn it off instead of hitting snooze over and over like I normally do I also resolved to quit smoking again to stop losing purses wallets and umbrellas and to not eat any more cheese puffs not even on special occasions,What resolution does the narrator make about her lifestyle to become a successful actress?,A. To wake up early and focus on her craft,B. To quit smoking and stop losing personal items,"C. To stop eating cheese puffs, even on special occasions",D. All of the above,D. All of the above,yes,7.5875,,,,,,,,,,,,,0,17,17,17,,,,,,,,,,,,,,,,,,,,,,,,,,,,,,,,,,,,,,,,,,,,,,,,,,,,,1438.627319042,1450.6534387079998,0,,,0,,,0,,,1,12.01485870800002,12.014862125000036,,,,,,,,,,,,,,,,,,,,,,,,,,,,p_10,001,2024-05-10_09h25.52.815,speech_rate,2023.2.3,None,2024-05-10 09h26.05.860384 -0700,
,Someday_46_condition.wav,Someday__Someday__Maybe__Unabridged___File_024_of_116_2.wav,I almost quit show business tonight I say a little breathless still astonished to have gone from complete despair to something like euphoria in such a short time Again You just quit two weeks ago I did You're a sensitive kid she says laughing That's okay you'll get tougher Let's have non farewell to show business drinks instead I'm meeting Leighton at Joe Allen Want to join Dina and I sit at the glossy wood bar at Joe Allen crowded with actors whose shows have just let out and patrons who've come from the theater,What is Dina inviting the narrator to?,A. Tea at her place,B. Drinks at a bar,C. Dinner at a restaurant,D. Party at an actor's house,B. Drinks at a bar,yes,29.85,,,,,,,,,,,,,0,18,18,18,0,0,0,0,0,0,0,0,1489.9282429999998,,,,,,,,,,,,,,,1451.650266417,1451.6824100413332,1451.681644333,1481.5281485829998,1481.538632625,1481.5593052499999,1481.7940906249999,1481.7940906249999,1484.913020792,1485.621037875,6.933333333333333,3.328264167000043,1,[0.717822040999863],[0.7178244579999955],,,,,,,1489.9006252499998,1489.9282429999998,1489.9282429999998,1519.9032466669998,A person almost quit showbiz earlier but recently something good happened swiching them from despair to euphoria someone else remaarks again and they go to eat/ dine together ,0,,,,,,,,,,,,,,,,,,,,,,,,1450.653982667,1450.6757767499998,1450.6757767499998,1450.6757767499998,1451.65002575,1,[0.9954882919998909],[0.9954909579998912],1485.6215485,1485.6268499579999,1489.899797958,1,[4.277545416999828],[4.277551249999988],,,,,,,p_10,001,2024-05-10_09h25.52.815,speech_rate,2023.2.3,None,2024-05-10 09h26.05.860384 -0700,
,Someday_46_condition.wav,Someday__Someday__Maybe__Unabridged___File_024_of_116_2.wav,I almost quit show business tonight I say a little breathless still astonished to have gone from complete despair to something like euphoria in such a short time Again You just quit two weeks ago I did You're a sensitive kid she says laughing That's okay you'll get tougher Let's have non farewell to show business drinks instead I'm meeting Leighton at Joe Allen Want to join Dina and I sit at the glossy wood bar at Joe Allen crowded with actors whose shows have just let out and patrons who've come from the theater,What is Dina inviting the narrator to?,A. Tea at her place,B. Drinks at a bar,C. Dinner at a restaurant,D. Party at an actor's house,B. Drinks at a bar,yes,29.85,,,,,,,,,,,,,0,18,18,18,0,0,0,0,,,,,,,,,,,,,,,,,,,,,,,,,,,,,,,,,,,,,,,,,,,,,,,,,,,,,,,,,,,,,,,,,,,,,,,,,,,,,,,,,,,,,,,,,,p_10,001,2024-05-10_09h25.52.815,speech_rate,2023.2.3,None,2024-05-10 09h26.05.860384 -0700,
,Someday_46_condition.wav,Someday__Someday__Maybe__Unabridged___File_024_of_116_2.wav,I almost quit show business tonight I say a little breathless still astonished to have gone from complete despair to something like euphoria in such a short time Again You just quit two weeks ago I did You're a sensitive kid she says laughing That's okay you'll get tougher Let's have non farewell to show business drinks instead I'm meeting Leighton at Joe Allen Want to join Dina and I sit at the glossy wood bar at Joe Allen crowded with actors whose shows have just let out and patrons who've come from the theater,What is Dina inviting the narrator to?,A. Tea at her place,B. Drinks at a bar,C. Dinner at a restaurant,D. Party at an actor's house,B. Drinks at a bar,yes,29.85,,,,,,,,,,,,,0,18,18,18,,,,,,,,,,,,,,,,,,,,,,,,,,,,,,,,,,,,,,,,,,,,,,,,,,,,,1519.903585958,1526.0484065829999,0,,,0,,,1,6.136277625000048,6.13628041700008,0,,,,,,,,,,,,,,,,,,,,,,,,,,,,,,p_10,001,2024-05-10_09h25.52.815,speech_rate,2023.2.3,None,2024-05-10 09h26.05.860384 -0700,
,Someday_65_condition-4x.wav,Someday__Someday__Maybe__Unabridged___File_032_of_116_0.wav,From the minute I walk into the wardrobe fitting in a trailer near mine I'm confused There are two giant rolling racks one full of tan trousers one stuffed with 30 or 40 identical blue shirts Oh Are there are there more people coming I ask a harried looking woman nearby She looks at me as though I've said something strange what oh the racks No those are all for you But aren't these all the same pants I say laughing a little,What does the narrator find confusing in the wardrobe fitting?,A. The lack of clothing options,B. The number of people there,C. The presence of a harried woman,D. The identical blue shirts and tan trousers,D. The identical blue shirts and tan trousers,yes,7.0225,,,,,,,,,,,,,0,19,19,19,0,0,0,0,0,0,0,0,1544.9111740829999,,,,,,,,,,,,,,,1527.9876487499998,1528.0030212086665,1527.99991275,1535.031261792,1535.034143375,1535.045375583,1535.30835925,1535.30835925,1537.957803625,1542.550323875,1.4666666666666668,5.450584749999962,1,[4.6016410839999935],[4.6016440000000784],,,,,,,1544.900349,1544.9111740829999,1544.9111740829999,1558.806912792,T-shirts. No. Thats all you ,1,[13.903382542000145],[13.903385416999981],,,,,,,,,,,,,,,,,,,,,,1526.04899125,1526.056415417,1526.056415417,1526.056415417,1527.987432083,1,[1.9366484160000255],[1.9366514159999042],1542.550868667,1542.556062958,1544.899596208,1,[2.348158458000171],[2.34816108300015],,,,,,,p_10,001,2024-05-10_09h25.52.815,speech_rate,2023.2.3,None,2024-05-10 09h26.05.860384 -0700,
,Someday_65_condition-4x.wav,Someday__Someday__Maybe__Unabridged___File_032_of_116_0.wav,From the minute I walk into the wardrobe fitting in a trailer near mine I'm confused There are two giant rolling racks one full of tan trousers one stuffed with 30 or 40 identical blue shirts Oh Are there are there more people coming I ask a harried looking woman nearby She looks at me as though I've said something strange what oh the racks No those are all for you But aren't these all the same pants I say laughing a little,What does the narrator find confusing in the wardrobe fitting?,A. The lack of clothing options,B. The number of people there,C. The presence of a harried woman,D. The identical blue shirts and tan trousers,D. The identical blue shirts and tan trousers,yes,7.0225,,,,,,,,,,,,,0,19,19,19,0,0,0,0,,,,,,,,,,,,,,,,,,,,,,,,,,,,,,,,,,,,,,,,,,,,,,,,,,,,,,,,,,,,,,,,,,,,,,,,,,,,,,,,,,,,,,,,,,p_10,001,2024-05-10_09h25.52.815,speech_rate,2023.2.3,None,2024-05-10 09h26.05.860384 -0700,
,Someday_65_condition-4x.wav,Someday__Someday__Maybe__Unabridged___File_032_of_116_0.wav,From the minute I walk into the wardrobe fitting in a trailer near mine I'm confused There are two giant rolling racks one full of tan trousers one stuffed with 30 or 40 identical blue shirts Oh Are there are there more people coming I ask a harried looking woman nearby She looks at me as though I've said something strange what oh the racks No those are all for you But aren't these all the same pants I say laughing a little,What does the narrator find confusing in the wardrobe fitting?,A. The lack of clothing options,B. The number of people there,C. The presence of a harried woman,D. The identical blue shirts and tan trousers,D. The identical blue shirts and tan trousers,yes,7.0225,,,,,,,,,,,,,0,19,19,19,,,,,,,,,,,,,,,,,,,,,,,,,,,,,,,,,,,,,,,,,,,,,,,,,,,,,1558.807411667,1565.701181208,0,,,1,6.8837597080000705,6.883762124999976,0,,,0,,,,,,,,,,,,,,,,,,,,,,,,,,,,,,p_10,001,2024-05-10_09h25.52.815,speech_rate,2023.2.3,None,2024-05-10 09h26.05.860384 -0700,
,Someday_105_condition.wav,Someday__Someday__Maybe__Unabridged___File_047_of_116_1.wav,Like he was a person but from another planet or something But the longer I work for him the more I see he's just this guy this very unusually gorgeous extremely muscly guy who's sort of funny and sort of smart but who's a regular person who married the girl he dated in high school and doesn't seem to know how he got here He seems totally baffled by his success and he's always asking my opinion about things like his wardrobe or whatever And I'm wondering if he's forgotten I'm just the PA on my very first movie ever,What is the narrator's perception of the person she works for?,A. He's like a person from another planet,B. He's extremely muscly and smart,C. He's very confident and self-assured,D. He's just a regular person baffled by his success,D. He's just a regular person baffled by his success,no,29.80996875,,,,,,,,,,,,,0,20,20,20,,,,,,,,,1565.7155143749999,,,,,,,,,,,,,,,1568.157367083,1568.1898825003332,1568.188967917,1598.001745583,1598.004477083,1598.026385292,1598.263260167,1598.263260167,1602.678738375,1603.5097477919999,8.766666666666666,4.625025958000151,1,[0.8405064579999362],[0.8405090829999153],,,,,,,,,,,,,,,1603.510247208,1617.9542146249998,0,,,0,,,0,,,1,14.434078957999873,14.434081957999979,,,,,,,,1565.7016886669999,1565.7155143749999,1565.7155143749999,1565.7155143749999,1568.1571710419998,1,[2.4538491660000545],[2.4538518330000443],,,,,,,,,,,,,p_10,001,2024-05-10_09h25.52.815,speech_rate,2023.2.3,None,2024-05-10 09h26.05.860384 -0700,
,Someday_26_condition-5x.wav,Someday__Someday__Maybe__Unabridged___File_015_of_116_2.wav,My stomach lurches The action between each line is the exact opposite of what the line is After kids are my number one priority it says rushing mom gets daughter to school just as the bell is ringing After the thing about always having time for friends looks at answering machine guiltily and decides to screen the call At the end the harried housewife stuffs an impossible amount of dirty clothes in the washer which miraculously come out clean and she gets a huge hug from her approving husband,What is the narrator's reaction to the script she's reading?,A. Her stomach lurches,B. She finds it amusing,C. She feels inspired,D. She is moved to tears,A. Her stomach lurches,no,5.578,,,,,,,,,,,,,0,21,21,21,,,,,,,,,1617.962567917,,,,,,,,,,,,,,,1620.30989325,1620.3257254166665,1620.3214712919998,1625.9032775829999,1625.90606875,1625.9173061249999,1626.124224917,1626.124224917,1629.224828375,1630.186820917,1,3.28332420799984,1,[0.9713136249999934],[0.9713159160000941],,,,,,,,,,,,,,,1630.187280875,1634.056913375,0,,,0,,,1,3.861549707999984,3.8615534170000956,0,,,,,,,,,,1617.954798833,1617.962567917,1617.962567917,1617.962567917,1620.309709875,1,[2.3530987920000825],[2.353101458000083],,,,,,,,,,,,,p_10,001,2024-05-10_09h25.52.815,speech_rate,2023.2.3,None,2024-05-10 09h26.05.860384 -0700,
,Someday_123_condition-5x.wav,Someday__Someday__Maybe__Unabridged___File_054_of_116_3.wav,I'll admit it's sort of a sick relationship to have with someone who is hardly in your life Lisa doesn't come on until noon and I'm regularly sleeping until then now because there's no reason to get up any earlier Jane is treating it as a big deal as if there's something really wrong with me She calls me from work every day just to make sure I get up I'm worried about you You're depressed I'm fine My roommate Francis Farmer Jane says melodramatically I'm a sensitive creative type I'm going through something,Why does Jane call the narrator character every day?,A. To share gossip,B. To check if the main character is awake,C. To discuss their favorite TV shows,D. To offer emotional support,B. To check if the main character is awake,no,6.032,,,,,,,,,,,,,0,22,22,22,,,,,,,,,1634.069981875,,,,,,,,,,,,,,,1635.3888803749999,1635.4035318336666,1635.4013566249998,1641.428344875,1641.439749667,1641.4506516669999,1641.6539317499999,1641.6539317499999,1645.480756208,1646.234937125,1.1749999999999998,4.003319292000015,1,[0.7631526249999752],[0.7631554170000072],,,,,,,,,,,,,,,1646.235412375,1658.205785042,1,11.960715041999947,11.960717875,0,,,0,,,0,,,,,,,,,,1634.057466083,1634.069981875,1634.069981875,1634.069981875,1635.388631708,1,[1.3286145419999684],[1.3286174580000534],,,,,,,,,,,,,p_10,001,2024-05-10_09h25.52.815,speech_rate,2023.2.3,None,2024-05-10 09h26.05.860384 -0700,
,Someday_43_condition-4x.wav,Someday__Someday__Maybe__Unabridged___File_023_of_116_1.wav,Then I'll call my dad and tell him I'm leaving New York You're doing the right thing honey he'll say Now you can get your teaching certificate I imagine what a relief it will be to have a real job I'll have a regular paycheck and a desk and a phone and a fax machine I'll have a computer which hopefully would come with someone to teach me how to use it And I'll have people to go out with sometimes after work for a drink at Bennigan's who'll me about their boyfriend or their kid or a project they're working on in their garage,What does the narrator think her father will say when she leaves New York?,A. That she is doing the right thing,B. That she should have tried harder,C. That she can go back to New York if she wants to,D. That she should have done it earlier,A. That she is doing the right thing,yes,7.505,,,,,,,,,,,,,0,23,23,23,0,0,0,0,0,0,0,0,1675.255269083,,,,,,,,,,,,,,,1659.9784286249999,1659.9938768746665,1659.9910203749998,1667.505677125,1667.508737042,1667.5199701249999,1667.7222312919998,1667.7222312919998,1670.4602445,1672.945108458,2.6833333333333336,2.914442583000209,1,[2.494070375000092],[2.494073374999971],,,,,,,1675.24343175,1675.255269083,1675.255269083,1697.114229292,a phone... a fax machine. I wish someone would tell me how to use it... working abroad,1,[21.8674578749999],[21.867461249999906],,,,,,,,,,,,,,,,,,,,,,1658.206324667,1658.212184792,1658.212184792,1658.212184792,1659.978247708,1,[1.7713637090000702],[1.7713665420001234],1672.945618083,1672.9546854169998,1675.2426595,1,[2.29634933300008],[2.2963545830000385],,,,,,,p_10,001,2024-05-10_09h25.52.815,speech_rate,2023.2.3,None,2024-05-10 09h26.05.860384 -0700,
,Someday_43_condition-4x.wav,Someday__Someday__Maybe__Unabridged___File_023_of_116_1.wav,Then I'll call my dad and tell him I'm leaving New York You're doing the right thing honey he'll say Now you can get your teaching certificate I imagine what a relief it will be to have a real job I'll have a regular paycheck and a desk and a phone and a fax machine I'll have a computer which hopefully would come with someone to teach me how to use it And I'll have people to go out with sometimes after work for a drink at Bennigan's who'll me about their boyfriend or their kid or a project they're working on in their garage,What does the narrator think her father will say when she leaves New York?,A. That she is doing the right thing,B. That she should have tried harder,C. That she can go back to New York if she wants to,D. That she should have done it earlier,A. That she is doing the right thing,yes,7.505,,,,,,,,,,,,,0,23,23,23,0,0,0,0,,,,,,,,,,,,,,,,,,,,,,,,,,,,,,,,,,,,,,,,,,,,,,,,,,,,,,,,,,,,,,,,,,,,,,,,,,,,,,,,,,,,,,,,,,p_10,001,2024-05-10_09h25.52.815,speech_rate,2023.2.3,None,2024-05-10 09h26.05.860384 -0700,
,Someday_43_condition-4x.wav,Someday__Someday__Maybe__Unabridged___File_023_of_116_1.wav,Then I'll call my dad and tell him I'm leaving New York You're doing the right thing honey he'll say Now you can get your teaching certificate I imagine what a relief it will be to have a real job I'll have a regular paycheck and a desk and a phone and a fax machine I'll have a computer which hopefully would come with someone to teach me how to use it And I'll have people to go out with sometimes after work for a drink at Bennigan's who'll me about their boyfriend or their kid or a project they're working on in their garage,What does the narrator think her father will say when she leaves New York?,A. That she is doing the right thing,B. That she should have tried harder,C. That she can go back to New York if she wants to,D. That she should have done it earlier,A. That she is doing the right thing,yes,7.505,,,,,,,,,,,,,0,23,23,23,,,,,,,,,,,,,,,,,,,,,,,,,,,,,,,,,,,,,,,,,,,,,,,,,,,,,1697.114701875,1713.842409208,0,,,0,,,0,,,1,16.71523400000001,16.715236875000073,,,,,,,,,,,,,,,,,,,,,,,,,,,,p_10,001,2024-05-10_09h25.52.815,speech_rate,2023.2.3,None,2024-05-10 09h26.05.860384 -0700,
,Someday_74_condition-3x.wav,Someday__Someday__Maybe__Unabridged___File_035_of_116_2.wav,Barney wears a light blue sport coat and has thick white hair cropped very close to his head The whole place smells like cigar smoke and dust but there's something comforting about it I'm afraid my nervousness is obvious especially when I discover that the only way to sit in the one huge armchair opposite his desk is to sink into it and be swallowed I fight the chair for a minute trying to perch daintily on the edge and then give up and sit back which at least might make me look relaxed Francis Banks Barney Bellows,What is Barney Sparks wearing when the main character meets him?,A. A black tuxedo,B. A light blue sport coat,C. A red sweater,D. A white lab coat,B. A light blue sport coat,no,11.1525,,,,,,,,,,,,,0,24,24,24,,,,,,,,,1713.8503759579999,,,,,,,,,,,,,,,1716.492731958,1716.5080993336667,1716.509799,1727.659439417,1727.6632789169998,1727.673735333,1727.922761333,1727.922761333,1732.364975875,1733.5665328329999,7.066666666666666,4.66609133399993,1,[1.2108323329998711],[1.210834707999993],,,,,,,,,,,,,,,1733.566987333,1751.3466154999999,0,,,1,17.77131162500018,17.771314542000027,0,,,0,,,,,,,,,,1713.842908208,1713.8503759579999,1713.8503759579999,1713.8503759579999,1716.492467,1,[2.6477840000000015],[2.6477869169998485],,,,,,,,,,,,,p_10,001,2024-05-10_09h25.52.815,speech_rate,2023.2.3,None,2024-05-10 09h26.05.860384 -0700,
,Someday_44_condition-4x.wav,Someday__Someday__Maybe__Unabridged___File_024_of_116_0.wav,It's such a talent to be able to make people laugh but God forbid you end up on something joyless and soul crushing like that show with all the nurses Hello New York The first person I spot outside the theater is Dina smoking with a few other classmates Dina is one of the older members of our class in her 40s maybe and is still sort of famous from a show she did in the 80s called There's Pierre which I remember watching all the time growing up but she never mentions it so I don't either,What show does the narrator consider joyless and soul-crushing?,A. A show about nurses,B. A show called "Hello New York",C. A show from the 80s,D. A show with Dina,A. A show about nurses,yes,7.485,,,,,,,,,,,,,0,25,25,25,0,0,0,0,0,0,0,0,1769.840944,,,,,,,,,,,,,,,1753.3334905,1753.3493191246666,1753.348117583,1760.844196458,1760.847115375,1760.8578876249999,1761.0655482079999,1761.0655482079999,1763.9837606249998,1764.7122668749998,1.4083333333333337,3.101290290999941,1,[0.7377213330000814],[0.7377240000000711],,,,,,,1769.829651,1769.840944,1769.840944,1796.33798925,It's a pleasure to meet you. The first time we met up it was... bernie?,1,[26.505035000000134],[26.50503787499997],,,,,,,,,,,,,,,,,,,,,,1751.34716175,1751.359844583,1751.359844583,1751.359844583,1753.333297167,1,[1.984370459000047],[1.9843730840000262],1764.7127825,1764.717943292,1769.828833708,1,[5.115272291999872],[5.115275041999894],,,,,,,p_10,001,2024-05-10_09h25.52.815,speech_rate,2023.2.3,None,2024-05-10 09h26.05.860384 -0700,
,Someday_44_condition-4x.wav,Someday__Someday__Maybe__Unabridged___File_024_of_116_0.wav,It's such a talent to be able to make people laugh but God forbid you end up on something joyless and soul crushing like that show with all the nurses Hello New York The first person I spot outside the theater is Dina smoking with a few other classmates Dina is one of the older members of our class in her 40s maybe and is still sort of famous from a show she did in the 80s called There's Pierre which I remember watching all the time growing up but she never mentions it so I don't either,What show does the narrator consider joyless and soul-crushing?,A. A show about nurses,B. A show called "Hello New York",C. A show from the 80s,D. A show with Dina,A. A show about nurses,yes,7.485,,,,,,,,,,,,,0,25,25,25,0,0,0,0,,,,,,,,,,,,,,,,,,,,,,,,,,,,,,,,,,,,,,,,,,,,,,,,,,,,,,,,,,,,,,,,,,,,,,,,,,,,,,,,,,,,,,,,,,p_10,001,2024-05-10_09h25.52.815,speech_rate,2023.2.3,None,2024-05-10 09h26.05.860384 -0700,
,Someday_44_condition-4x.wav,Someday__Someday__Maybe__Unabridged___File_024_of_116_0.wav,It's such a talent to be able to make people laugh but God forbid you end up on something joyless and soul crushing like that show with all the nurses Hello New York The first person I spot outside the theater is Dina smoking with a few other classmates Dina is one of the older members of our class in her 40s maybe and is still sort of famous from a show she did in the 80s called There's Pierre which I remember watching all the time growing up but she never mentions it so I don't either,What show does the narrator consider joyless and soul-crushing?,A. A show about nurses,B. A show called "Hello New York",C. A show from the 80s,D. A show with Dina,A. A show about nurses,yes,7.485,,,,,,,,,,,,,0,25,25,25,,,,,,,,,,,,,,,,,,,,,,,,,,,,,,,,,,,,,,,,,,,,,,,,,,,,,1796.338497583,1813.297720333,0,,,0,,,1,16.94821058399998,16.948213459000044,0,,,,,,,,,,,,,,,,,,,,,,,,,,,,,,p_10,001,2024-05-10_09h25.52.815,speech_rate,2023.2.3,None,2024-05-10 09h26.05.860384 -0700,
,Someday_29_condition-3x.wav,Someday__Someday__Maybe__Unabridged___File_017_of_116_1.wav,You said you're new Who Me Well sort of yes I'm new to class but I've lived in New York for a little while two years over two years I worked for my dad at his school and then I was in a theater company for a long time before that touring and also I've done one commercial and that's it Ugh I'm babbling At least I didn't tell him the company was called Go Kids and we played stupid fairy tale characters and the only places we toured were elementary schools in the Tri State area Oh God what if he asks what company I was in I wish I hadn't mentioned the commercial either,What is the narrator worried about regarding her introduction to the person she meets on the street?,A. Revealing too much about her background,B. Not providing enough information,C. Mentioning the wrong company name,D. Being too concise in her introduction,A. Revealing too much about her background,no,11.0775,,,,,,,,,,,,,0,26,26,26,,,,,,,,,1813.3051169169999,,,,,,,,,,,,,,,1820.930302083,1820.9456712916665,1820.947281583,1832.031765167,1832.03501325,1832.046218875,1832.30515,1832.30515,1837.2244235829999,1841.538555375,3.816666666666667,5.152344250000169,1,[4.3229754579999735],[4.322978124999963],,,,,,,,,,,,,,,1841.538992708,1851.934065333,1,10.384844208000004,10.384847000000036,0,,,0,,,0,,,,,,,,,,1813.298247125,1813.3051169169999,1813.3051169169999,1813.3051169169999,1820.930089958,1,[7.6300140830001055],[7.630016917000148],,,,,,,,,,,,,p_10,001,2024-05-10_09h25.52.815,speech_rate,2023.2.3,None,2024-05-10 09h26.05.860384 -0700,
,Someday_58_condition-4x.wav,Someday__Someday__Maybe__Unabridged___File_028_of_116_0.wav,Her profile is sharp her whole body a series of angles that have somehow Improbably folded themselves on their hinges into the soft chair There's something so regal and linear about her I can't imagine her ever collapsing into giggles or crying hysterically She's taking her time to consider what to say next in a way that suggests she's used to people waiting for her I wonder what that's like to never worry about filling the silence Her eyes eventually float back to me,How does the narrator describe the woman's profile?,A. Sharp,B. Round,C. Regal,D. Hysterical,A. Sharp,yes,7.32,,,,,,,,,,,,,0,27,27,27,0,0,0,0,0,0,0,0,1865.447044125,,,,,,,,,,,,,,,1852.950537958,1852.9659629996665,1852.964597042,1860.3090445,1860.289722167,1860.300952208,1860.500274542,1860.500274542,1863.3933433329998,1864.356633375,2.025,3.065114499999936,1,[0.9723178749998169],[0.9723201249998965],,,,,,,1865.435390417,1865.447044125,1865.447044125,1892.102907542,I wonder what it's like to never worry about silence. She gets back to me,1,[26.664311250000083],[26.66431470800012],,,,,,,,,,,,,,,,,,,,,,1851.9346444169998,1851.9424657079999,1851.9424657079999,1851.9424657079999,1852.950314667,1,[1.0137830829999075],[1.0137857499998972],1864.357190917,1864.3657795,1865.434600958,1,[1.0764242089999243],[1.0764268339999035],,,,,,,p_10,001,2024-05-10_09h25.52.815,speech_rate,2023.2.3,None,2024-05-10 09h26.05.860384 -0700,
,Someday_58_condition-4x.wav,Someday__Someday__Maybe__Unabridged___File_028_of_116_0.wav,Her profile is sharp her whole body a series of angles that have somehow Improbably folded themselves on their hinges into the soft chair There's something so regal and linear about her I can't imagine her ever collapsing into giggles or crying hysterically She's taking her time to consider what to say next in a way that suggests she's used to people waiting for her I wonder what that's like to never worry about filling the silence Her eyes eventually float back to me,How does the narrator describe the woman's profile?,A. Sharp,B. Round,C. Regal,D. Hysterical,A. Sharp,yes,7.32,,,,,,,,,,,,,0,27,27,27,0,0,0,0,,,,,,,,,,,,,,,,,,,,,,,,,,,,,,,,,,,,,,,,,,,,,,,,,,,,,,,,,,,,,,,,,,,,,,,,,,,,,,,,,,,,,,,,,,p_10,001,2024-05-10_09h25.52.815,speech_rate,2023.2.3,None,2024-05-10 09h26.05.860384 -0700,
,Someday_58_condition-4x.wav,Someday__Someday__Maybe__Unabridged___File_028_of_116_0.wav,Her profile is sharp her whole body a series of angles that have somehow Improbably folded themselves on their hinges into the soft chair There's something so regal and linear about her I can't imagine her ever collapsing into giggles or crying hysterically She's taking her time to consider what to say next in a way that suggests she's used to people waiting for her I wonder what that's like to never worry about filling the silence Her eyes eventually float back to me,How does the narrator describe the woman's profile?,A. Sharp,B. Round,C. Regal,D. Hysterical,A. Sharp,yes,7.32,,,,,,,,,,,,,0,27,27,27,,,,,,,,,,,,,,,,,,,,,,,,,,,,,,,,,,,,,,,,,,,,,,,,,,,,,1892.1033828329998,1899.838846875,0,,,0,,,1,7.7273300000001655,7.727336541000113,0,,,,,,,,,,,,,,,,,,,,,,,,,,,,,,p_10,001,2024-05-10_09h25.52.815,speech_rate,2023.2.3,None,2024-05-10 09h26.05.860384 -0700,
,Someday_94_condition.wav,Someday__Someday__Maybe__Unabridged___File_041_of_116_1.wav,He doesn't say anything so I feel obligated to keep going It's as if I'm not driving this train anymore I'm just holding on trying not to crash completely I've always loved the theater I say Thank God It isn't original but it's TRUE at least My dad would take me when I was a kid to whatever little show was playing in our town in Connecticut and we'd also see most of what was in New Haven and sometimes we'd come into the city and it wasn't just theater It was ballet and music and modern dance too I pause,What is the narrator's childhood connection to the theater?,A. She used to perform in school plays,B. Her father would take her to various shows,C. She always dreamed of becoming an actor,D. She was part of a local theater group,B. Her father would take her to various shows,no,29.88,,,,,,,,,,,,,0,28,28,28,,,,,,,,,1899.8518877499998,,,,,,,,,,,,,,,1902.95292725,1902.9854394163333,1902.984849917,1932.857070958,1932.874064375,1932.8957290829999,1933.16249425,1933.16249425,1937.4032465,1938.8048382499999,8.833333333333332,4.4800994170000195,1,[1.4141736669998863],[1.4141758749999553],,,,,,,,,,,,,,,1938.805276208,1945.811995667,0,,,1,6.9977403339999,6.997742666999784,0,,,0,,,,,,,,,,1899.839414667,1899.8518877499998,1899.8518877499998,1899.8518877499998,1902.952726875,1,[3.112723500000129],[3.112726041000087],,,,,,,,,,,,,p_10,001,2024-05-10_09h25.52.815,speech_rate,2023.2.3,None,2024-05-10 09h26.05.860384 -0700,
,Someday_5_condition-2x.wav,Someday__Someday__Maybe__Unabridged___File_005_of_116_4.wav,I am late Frank is the neighbor whose apartment we can see into from the windows in the back of our brownstone Frank leads a mysterious solitary life but one you can set a clock by He rises at eight sits in front of a computer from nine to one goes out and gets a sandwich is back at the computer from two until six thirty is gone from six thirty to eight and then watches TV from eight until eleven p m after which he goes promptly to sleep The schedule never changes No one ever comes over,"Who is Frank, and what is his daily routine?","A. Frank is the narrator's neighbor, and he works from home.","B. Frank is the narrator's roommate, and he works from home.","C. Frank is the narrator's friend, and he enjoys watching TV all day.","D. Frank is the narrator's landlord, and he travels frequently.","A. Frank is the narrator's neighbor, and he works from home.",yes,14.88503125,,,,,,,,,,,,,0,29,29,29,0,0,0,0,0,0,0,0,1972.4558821669998,,,,,,,,,,,,,,,1951.072982625,1951.0881469166666,1951.092579833,1965.998362833,1965.979148292,1965.990047458,1966.1947867499998,1966.1947867499998,1970.3609836669998,1971.074632583,9.108333333333333,4.3469567090000965,1,[0.7225497919998816],[0.7225532080001358],,,,,,,1972.4281485000001,1972.4558821669998,1972.4558821669998,2002.4309241669998,someone watche frank through the window. Frank has a very consitent schedule where he does things from 8-11 8,0,,,,,,,,,,,,,,,,,,,,,,,,1945.812430125,1945.8193993329999,1945.8193993329999,1945.8193993329999,1951.072700708,1,[5.258765083000071],[5.25876808299995],1971.0751692919998,1971.0885994999999,1972.427483375,1,[1.3517009580000376],[1.3517036250000274],,,,,,,p_10,001,2024-05-10_09h25.52.815,speech_rate,2023.2.3,None,2024-05-10 09h26.05.860384 -0700,
,Someday_5_condition-2x.wav,Someday__Someday__Maybe__Unabridged___File_005_of_116_4.wav,I am late Frank is the neighbor whose apartment we can see into from the windows in the back of our brownstone Frank leads a mysterious solitary life but one you can set a clock by He rises at eight sits in front of a computer from nine to one goes out and gets a sandwich is back at the computer from two until six thirty is gone from six thirty to eight and then watches TV from eight until eleven p m after which he goes promptly to sleep The schedule never changes No one ever comes over,"Who is Frank, and what is his daily routine?","A. Frank is the narrator's neighbor, and he works from home.","B. Frank is the narrator's roommate, and he works from home.","C. Frank is the narrator's friend, and he enjoys watching TV all day.","D. Frank is the narrator's landlord, and he travels frequently.","A. Frank is the narrator's neighbor, and he works from home.",yes,14.88503125,,,,,,,,,,,,,0,29,29,29,0,0,0,0,,,,,,,,,,,,,,,,,,,,,,,,,,,,,,,,,,,,,,,,,,,,,,,,,,,,,,,,,,,,,,,,,,,,,,,,,,,,,,,,,,,,,,,,,,p_10,001,2024-05-10_09h25.52.815,speech_rate,2023.2.3,None,2024-05-10 09h26.05.860384 -0700,
,Someday_5_condition-2x.wav,Someday__Someday__Maybe__Unabridged___File_005_of_116_4.wav,I am late Frank is the neighbor whose apartment we can see into from the windows in the back of our brownstone Frank leads a mysterious solitary life but one you can set a clock by He rises at eight sits in front of a computer from nine to one goes out and gets a sandwich is back at the computer from two until six thirty is gone from six thirty to eight and then watches TV from eight until eleven p m after which he goes promptly to sleep The schedule never changes No one ever comes over,"Who is Frank, and what is his daily routine?","A. Frank is the narrator's neighbor, and he works from home.","B. Frank is the narrator's roommate, and he works from home.","C. Frank is the narrator's friend, and he enjoys watching TV all day.","D. Frank is the narrator's landlord, and he travels frequently.","A. Frank is the narrator's neighbor, and he works from home.",yes,14.88503125,,,,,,,,,,,,,0,29,29,29,,,,,,,,,,,,,,,,,,,,,,,,,,,,,,,,,,,,,,,,,,,,,,,,,,,,,2002.431261583,2015.885586667,1,13.442420332999973,13.442423125000005,0,,,0,,,0,,,,,,,,,,,,,,,,,,,,,,,,,,,,,,p_10,001,2024-05-10_09h25.52.815,speech_rate,2023.2.3,None,2024-05-10 09h26.05.860384 -0700,
,Someday_38_condition-3x.wav,Someday__Someday__Maybe__Unabridged___File_021_of_116_0.wav,Standing this close to him for the second time it occurs to me that his scarf is homemade and I feel a pang of jealousy wondering who knit it for him I like to be cold I say in what I hope is an appealing yet mysterious way that will make him regret not calling me while trying not to shiver Did you were you just in there I ask eyeing him carefully please God say no In the audience Yeah I was standing in the back It's over They just had curtain call,What does the narrator feel jealous about?,A. The actor's performance,B. The actor's homemade scarf,C. The audience's response,D. The actor's phone call,B. The actor's homemade scarf,no,11.0925,,,,,,,,,,,,,0,30,30,30,,,,,,,,,2015.8935886670001,,,,,,,,,,,,,,,2016.676575208,2016.6919807496668,2016.693841333,2027.793186167,2027.7963358749998,2027.8178721670001,2028.090633458,2028.090633458,2031.894253042,2032.594646083,4.725,4.049638582999705,1,[0.7091776659999596],[0.7091807080000763],,,,,,,,,,,,,,,2032.5950765829998,2042.2948324169997,0,,,1,9.691093833000195,9.69109670800026,0,,,0,,,,,,,,,,2015.8861218749998,2015.8935886670001,2015.8935886670001,2015.8935886670001,2016.6763207079998,1,[0.7884839170001214],[0.7884867499997199],,,,,,,,,,,,,p_10,001,2024-05-10_09h25.52.815,speech_rate,2023.2.3,None,2024-05-10 09h26.05.860384 -0700,
,Someday_90_condition-3x.wav,Someday__Someday__Maybe__Unabridged___File_039_of_116_3.wav,There are so many to choose from I wonder if this is part of the audition and the chairs are a test I wonder if I'm being watched on a hidden camera I wonder if I should be worried about the alarming frequency that the concept of being watched on a hidden camera occurs to me But if I were being watched what chair would the people sitting behind the monitor in the hidden control room consider the right one Does Absolute Artists work only with people who choose to sit at the head of the table Does that say I'm a star Is that the kind of boldness they're looking for,Why does the narrator wonder if the chairs are part of the audition?,A. She thinks the chairs are being watched,B. She believes the chairs are a test,C. She wants to find the right chair to sit in,D. All of the above,D. All of the above,yes,11.14125,,,,,,,,,,,,,0,31,31,31,0,0,0,0,0,0,0,0,2062.9407136249997,,,,,,,,,,,,,,,2045.385030375,2045.4002818336664,2045.4010840830001,2056.544746208,2056.5453305,2056.555562208,2056.763526292,2056.763526292,2061.1675375,2061.881012083,9.608333333333334,4.587133125000037,1,[0.7231127079999169],[0.723115124999822],,,,,,,2062.929764417,2062.9407136249997,2062.9407136249997,2092.9304672079998,SHe worries about what chair to sit in before maybe an audition. She thinks there might be a hidden camera and wonders if sitting at the head of the table will indicate that she is star,0,,,,,,,,,,,,,,,,,,,,,,,,2042.2954205,2042.303198958,2042.303198958,2042.303198958,2045.384776542,1,[3.087354167000285],[3.087356959000317],2061.881535333,2061.893822375,2062.928979042,1,[1.046808417000193],[1.046811125000204],2092.949944292,2092.949944292,,,,,p_10,001,2024-05-10_09h25.52.815,speech_rate,2023.2.3,None,2024-05-10 09h26.05.860384 -0700,
,Someday_90_condition-3x.wav,Someday__Someday__Maybe__Unabridged___File_039_of_116_3.wav,There are so many to choose from I wonder if this is part of the audition and the chairs are a test I wonder if I'm being watched on a hidden camera I wonder if I should be worried about the alarming frequency that the concept of being watched on a hidden camera occurs to me But if I were being watched what chair would the people sitting behind the monitor in the hidden control room consider the right one Does Absolute Artists work only with people who choose to sit at the head of the table Does that say I'm a star Is that the kind of boldness they're looking for,Why does the narrator wonder if the chairs are part of the audition?,A. She thinks the chairs are being watched,B. She believes the chairs are a test,C. She wants to find the right chair to sit in,D. All of the above,D. All of the above,yes,11.14125,,,,,,,,,,,,,0,31,31,31,0,0,0,0,,,,,,,,,,,,,,,,,,,,,,,,,,,,,,,,,,,,,,,,,,,,,,,,,,,,,,,,,,,,,,,,,,,,,,,,,,,,,,,,,,,,,,,,,,p_10,001,2024-05-10_09h25.52.815,speech_rate,2023.2.3,None,2024-05-10 09h26.05.860384 -0700,
,Someday_90_condition-3x.wav,Someday__Someday__Maybe__Unabridged___File_039_of_116_3.wav,There are so many to choose from I wonder if this is part of the audition and the chairs are a test I wonder if I'm being watched on a hidden camera I wonder if I should be worried about the alarming frequency that the concept of being watched on a hidden camera occurs to me But if I were being watched what chair would the people sitting behind the monitor in the hidden control room consider the right one Does Absolute Artists work only with people who choose to sit at the head of the table Does that say I'm a star Is that the kind of boldness they're looking for,Why does the narrator wonder if the chairs are part of the audition?,A. She thinks the chairs are being watched,B. She believes the chairs are a test,C. She wants to find the right chair to sit in,D. All of the above,D. All of the above,yes,11.14125,,,,,,,,,,,,,0,31,31,31,,,,,,,,,,,,,,,,,,,,,,,,,,,,,,,,,,,,,,,,,,,,,,,,,,,,,2092.9309239169997,2105.656191583,0,,,0,,,0,,,1,12.715126874999896,12.715129666999928,,,,,,,,,,,,,,,,,,,,,,,,,,,,p_10,001,2024-05-10_09h25.52.815,speech_rate,2023.2.3,None,2024-05-10 09h26.05.860384 -0700,
,Someday_115_condition.wav,Someday__Someday__Maybe__Unabridged___File_051_of_116_2.wav,All those people can't just be walking around starving and happening to look great all the time They must know something that the rest of us don't Or worse maybe there isn't a trick Maybe they are walking around hungry all the time Maybe that's the difference between being successful or unsuccessful Maybe I'm too weak I'm too concerned with feeling good to be willing to feel as bad as I should to be successful Why would feeling good be bad People spend their lives trying to feel good You're not supposed to walk around miserable all the time,What is the narrator's concern about the successful people she sees?,A. They are always happy,B. They are always starving themselves,C. They know a secret for good acting,D. They are too weak to succeed,B. They are always starving themselves,yes,29.49,,,,,,,,,,,,,0,32,32,32,0,0,0,0,0,0,0,0,2145.150290125,,,,,,,,,,,,,,,2107.965561167,2107.997301583334,2107.997633375,2137.499156,2137.502261458,2137.52455825,2137.783635417,2137.783635417,2140.897842292,2142.5338256669997,10.0,4.449352749999889,1,[1.6484489169997687],[1.6484514169997055],,,,,,,2145.138298375,2145.150290125,2145.150290125,2175.13510325,"Narrator wonders if there is a trick to walking around looking fit. because surely people aren't just hungry all of the time like her, but then she thinks there isnt  a trick andshe is to concerne",0,,,,,,,,,,,,,,,,,,,,,,,,2105.656709792,2105.679843,2105.679843,2105.679843,2107.9652566669997,1,[2.3068028329998924],[2.3068087080000623],2142.534394833,2142.539275708,2145.1374,1,[2.601724374999776],[2.6017342079999253],2175.159592167,2175.159592167,,,,,p_10,001,2024-05-10_09h25.52.815,speech_rate,2023.2.3,None,2024-05-10 09h26.05.860384 -0700,
,Someday_115_condition.wav,Someday__Someday__Maybe__Unabridged___File_051_of_116_2.wav,All those people can't just be walking around starving and happening to look great all the time They must know something that the rest of us don't Or worse maybe there isn't a trick Maybe they are walking around hungry all the time Maybe that's the difference between being successful or unsuccessful Maybe I'm too weak I'm too concerned with feeling good to be willing to feel as bad as I should to be successful Why would feeling good be bad People spend their lives trying to feel good You're not supposed to walk around miserable all the time,What is the narrator's concern about the successful people she sees?,A. They are always happy,B. They are always starving themselves,C. They know a secret for good acting,D. They are too weak to succeed,B. They are always starving themselves,yes,29.49,,,,,,,,,,,,,0,32,32,32,0,0,0,0,,,,,,,,,,,,,,,,,,,,,,,,,,,,,,,,,,,,,,,,,,,,,,,,,,,,,,,,,,,,,,,,,,,,,,,,,,,,,,,,,,,,,,,,,,p_10,001,2024-05-10_09h25.52.815,speech_rate,2023.2.3,None,2024-05-10 09h26.05.860384 -0700,
