index,wav_file,old_name,segment_text,question,C1,C2,C3,C4,C_correct,summary,duration,training.thisRepN,training.thisTrialN,training.thisN,training.thisIndex,sum_true.thisRepN,sum_true.thisTrialN,sum_true.thisN,sum_true.thisIndex,dummy_loop.thisRepN,dummy_loop.thisTrialN,dummy_loop.thisN,dummy_loop.thisIndex,experiment.thisRepN,experiment.thisTrialN,experiment.thisN,experiment.thisIndex,sum_true_exp.thisRepN,sum_true_exp.thisTrialN,sum_true_exp.thisN,sum_true_exp.thisIndex,dummy_loop_exp.thisRepN,dummy_loop_exp.thisTrialN,dummy_loop_exp.thisN,dummy_loop_exp.thisIndex,thisRow.t,notes,Experimenter.started,reminder.started,Experimenter.stopped,Instructions.started,Instructions.stopped,Start_Segment_Train.started,Play_train.started,Trial_counter_train.started,text_5.started,Start_Segment_Train.stopped,Play_train.numClicks,Play_train.timesOn,Play_train.timesOff,Training_Segment.started,Experimen_audio.started,polygon.started,polygon.stopped,Training_Segment.stopped,Rating.started,slider.started,text_3.started,button_2.started,Rating.stopped,slider.response,slider.rt,button_2.numClicks,button_2.timesOn,button_2.timesOff,Start_Summary.started,text_2.started,Start_Summary.stopped,summary_button.numClicks,summary_button.timesOn,summary_button.timesOff,Summary.started,textbox.started,summary_done.started,Summary.stopped,textbox.text,summary_done.numClicks,summary_done.timesOn,summary_done.timesOff,Multiple_Choice_2.started,Multiple_Choice_2.stopped,A.numClicks,A.timesOn,A.timesOff,B.numClicks,B.timesOn,B.timesOff,C.numClicks,C.timesOn,C.timesOff,D.numClicks,D.timesOn,D.timesOff,Start_Exp.started,Start_exp.started,Start.started,Start_Exp.stopped,Start.numClicks,Start.timesOn,Start.timesOff,Start_Segment.started,Play.started,Trial_counter.started,text_6.started,Start_Segment.stopped,Play.numClicks,Play.timesOn,Play.timesOff,Start_Sum_Exp.started,text_4.started,Start_Sum_Exp.stopped,sum_button.numClicks,sum_button.timesOn,sum_button.timesOff,textbox.stopped,summary_done.stopped,Thanks.started,text_7.started,text_7.stopped,Thanks.stopped,participant,session,date,expName,psychopyVersion,frameRate,expStart,
1,Someday_trial_condition.wav,Someday__Someday__Maybe__Unabridged___File_069_of_116_3.wav,It's a gut feeling You can't nickname him He's a real person not a joke person You don't have to tell me Only a real person would try to shake hands with my best friend's foot Jane you're not explaining it right It was very romantic And thankfully our steaming bowl of bright yellow melted cheese with flecks of green chilies arrives Listen she says dipping a chip into the creamy depths You're the one with the brand new personality I'm still the same old Jane,"What does the narrator have, according to Jane?",A) A new recipe for dipping sauce,B) A new personality,C) A new restaurant suggestion,D) A new pair of shoes,B) A new personality,yes,30,0,0,0,0,0,0,0,0,0,0,0,0,,,,,,,,,,,,,392.59472345799986,,0.012404875000356697,0.022220625000045402,323.59836420800093,323.59837675000017,341.94643166700007,341.95763991700005,341.9749599170009,341.9749599170009,341.9749599170009,346.91294454200033,1,[4.945729500001107],[4.945734375000029],346.91332262499964,346.9625158749994,346.95766125000046,376.97800220799945,376.948443958001,376.9701460420001,377.18062162500064,377.18062162500064,380.44200058299975,381.5537211669998,9.941666666666666,3.442992124999364,1,[1.1218799159996706],[1.1218829160006862],381.5561096250003,381.5635458329998,392.5531455,1,[10.996398125000269],[10.996401541000523],392.5539027920004,392.59472345799986,392.59472345799986,412.4341148330004,"same old Jane, creamy dip, same personality",1,[19.851409375000003],[19.851413583000976],,,,,,,,,,,,,,,,,,,,,,,,,,,,,,,,,,,,,,,,,,p_11,001,2024-05-11_16h24.00.429,speech_rate,2023.2.3,None,2024-05-11 16h24.31.769571 -0700,
1,Someday_trial_condition.wav,Someday__Someday__Maybe__Unabridged___File_069_of_116_3.wav,It's a gut feeling You can't nickname him He's a real person not a joke person You don't have to tell me Only a real person would try to shake hands with my best friend's foot Jane you're not explaining it right It was very romantic And thankfully our steaming bowl of bright yellow melted cheese with flecks of green chilies arrives Listen she says dipping a chip into the creamy depths You're the one with the brand new personality I'm still the same old Jane,"What does the narrator have, according to Jane?",A) A new recipe for dipping sauce,B) A new personality,C) A new restaurant suggestion,D) A new pair of shoes,B) A new personality,yes,30,0,0,0,0,0,0,0,0,,,,,,,,,,,,,,,,,,,,,,,,,,,,,,,,,,,,,,,,,,,,,,,,,,,,,,,,,,,,,,,,,,,,,,,,,,,,,,,,,,,,,,,,,,,,,,,,,,,,,,p_11,001,2024-05-11_16h24.00.429,speech_rate,2023.2.3,None,2024-05-11 16h24.31.769571 -0700,
1,Someday_trial_condition.wav,Someday__Someday__Maybe__Unabridged___File_069_of_116_3.wav,It's a gut feeling You can't nickname him He's a real person not a joke person You don't have to tell me Only a real person would try to shake hands with my best friend's foot Jane you're not explaining it right It was very romantic And thankfully our steaming bowl of bright yellow melted cheese with flecks of green chilies arrives Listen she says dipping a chip into the creamy depths You're the one with the brand new personality I'm still the same old Jane,"What does the narrator have, according to Jane?",A) A new recipe for dipping sauce,B) A new personality,C) A new restaurant suggestion,D) A new pair of shoes,B) A new personality,yes,30,0,0,0,0,,,,,,,,,,,,,,,,,,,,,,,,,,,,,,,,,,,,,,,,,,,,,,,,,,,,,,,,,,,,,,,,,412.43460745800076,419.077335375001,0,,,1,6.621338709001066,6.621342084001299,0,,,0,,,,,,,,,,,,,,,,,,,,,,,,,,,,,,p_11,001,2024-05-11_16h24.00.429,speech_rate,2023.2.3,None,2024-05-11 16h24.31.769571 -0700,
2,Someday_trial_condition-5x.wav,Someday__Someday__Maybe__Unabridged___File_103_of_116_1.wav,Isn't halfway where two people usually meet Well in general maybe But tonight this is sort of a big deal for me It's my night I'm not sure you you don't think I get it Well no I mean how could you I'm having trouble making sense of this conversation James is speaking with authority but there's something wrong Something feels so wrong somehow I don't care about waving and smiling and having my picture taken with him,"How does James speak, according to the narrator?",A) With compassion,B) With grief,C) With hesitation,D) With authority,D) With authority,yes,6.2,0,1,1,1,0,0,0,0,0,0,0,0,,,,,,,,,,,,,439.0355056669996,,,,,,,419.07815391700024,419.0882789999996,419.0882789999996,419.0882789999996,423.03432933300064,1,[3.9521767089991044],[3.9521799169997394],423.0345492920005,423.0501792916659,423.0475500829998,429.2519720420005,429.2343640830004,429.2445042920008,429.4892932919993,429.4892932919993,432.1844170830009,433.17921249999927,1.0083333333333335,2.9152573749997828,1,[1.0042460410004423],[1.0042487500013522],433.17973258299935,433.1845754999995,439.02077179200023,1,[5.839984666999953],[5.839998249999553],439.0226105420006,439.0355056669996,439.0355056669996,441.12603279200084,,1,[2.0993167079996056],[2.0993200419998175],,,,,,,,,,,,,,,,,,,,,,,,,,,,,,,,,,,,,,,,,,p_11,001,2024-05-11_16h24.00.429,speech_rate,2023.2.3,None,2024-05-11 16h24.31.769571 -0700,
2,Someday_trial_condition-5x.wav,Someday__Someday__Maybe__Unabridged___File_103_of_116_1.wav,Isn't halfway where two people usually meet Well in general maybe But tonight this is sort of a big deal for me It's my night I'm not sure you you don't think I get it Well no I mean how could you I'm having trouble making sense of this conversation James is speaking with authority but there's something wrong Something feels so wrong somehow I don't care about waving and smiling and having my picture taken with him,"How does James speak, according to the narrator?",A) With compassion,B) With grief,C) With hesitation,D) With authority,D) With authority,yes,6.2,0,1,1,1,0,0,0,0,,,,,,,,,,,,,,,,,,,,,,,,,,,,,,,,,,,,,,,,,,,,,,,,,,,,,,,,,,,,,,,,,,,,,,,,,,,,,,,,,,,,,,,,,,,,,,,,,,,,,,p_11,001,2024-05-11_16h24.00.429,speech_rate,2023.2.3,None,2024-05-11 16h24.31.769571 -0700,
2,Someday_trial_condition-5x.wav,Someday__Someday__Maybe__Unabridged___File_103_of_116_1.wav,Isn't halfway where two people usually meet Well in general maybe But tonight this is sort of a big deal for me It's my night I'm not sure you you don't think I get it Well no I mean how could you I'm having trouble making sense of this conversation James is speaking with authority but there's something wrong Something feels so wrong somehow I don't care about waving and smiling and having my picture taken with him,"How does James speak, according to the narrator?",A) With compassion,B) With grief,C) With hesitation,D) With authority,D) With authority,yes,6.2,0,1,1,1,,,,,,,,,,,,,,,,,,,,,,,,,,,,,,,,,,,,,,,,,,,,,,,,,,,,,,,,,,,,,,,,,441.1264702919998,453.17582241700075,0,,,0,,,0,,,1,12.038972791999186,12.038976166999419,,,,,,,,,,,,,,,,,,,,,,,,,,,,p_11,001,2024-05-11_16h24.00.429,speech_rate,2023.2.3,None,2024-05-11 16h24.31.769571 -0700,
,Someday_55_condition-5x.wav,Someday__Someday__Maybe__Unabridged___File_027_of_116_3.wav,I'm mesmerized by her easy way with the awkward looking spoon shaped strainer that holds the tiny leaves and by the diamond engagement ring that glitters on her hand I wonder if she ever takes it off and if it has a napkin it rests on at night too Milk or lemon she asks Um milk I guess Everett and I are the same age but something about the formal way she does everything makes me sit up straighter on the sofa as if I'm at the house of an older relative instead of in my own living room in Brooklyn,What does the narrator do when talking to Everett?,A. She sits up straight,B. She talks with a deeper voice,C. She avoids eye contact,D. She lowers her voice,A. She sits up straight,no,5.802,,,,,,,,,,,,,0,0,0,0,,,,,,,,,540.6210462920008,,,,,,,,,,,,,,,543.6078350000007,543.6232632916674,543.6211314579996,549.413013542,549.4265278750008,549.4377624999997,549.6466661249997,549.6466661249997,551.0398252920004,552.230661167001,1,1.572310584000661,1,[1.2040243749997899],[1.204027165998923],,,,,,,,,,,,,,,552.2314059580003,558.7091714170001,0,,,1,6.46789041699958,6.467894291999983,0,,,0,,,453.1762027500008,453.18411854199985,453.18411854199985,540.5640442919994,1,[87.38713095799903],[87.38713745799942],540.6101853330001,540.6210462920008,540.6210462920008,540.6210462920008,543.607466292,1,[2.994028459001129],[2.9940317920008965],,,,,,,,,,,,,p_11,001,2024-05-11_16h24.00.429,speech_rate,2023.2.3,None,2024-05-11 16h24.31.769571 -0700,
,Someday_115_condition.wav,Someday__Someday__Maybe__Unabridged___File_051_of_116_2.wav,All those people can't just be walking around starving and happening to look great all the time They must know something that the rest of us don't Or worse maybe there isn't a trick Maybe they are walking around hungry all the time Maybe that's the difference between being successful or unsuccessful Maybe I'm too weak I'm too concerned with feeling good to be willing to feel as bad as I should to be successful Why would feeling good be bad People spend their lives trying to feel good You're not supposed to walk around miserable all the time,What is the narrator's concern about the successful people she sees?,A. They are always happy,B. They are always starving themselves,C. They know a secret for good acting,D. They are too weak to succeed,B. They are always starving themselves,yes,29.49,,,,,,,,,,,,,0,1,1,1,0,0,0,0,0,0,0,0,599.8770392080005,,,,,,,,,,,,,,,560.9258178750006,560.9747068330005,560.9655904169995,590.4492460420006,590.4661201670006,590.4875290830005,590.697645708,590.697645708,593.3315131670006,595.7880057080001,10,2.8200462919994607,1,[2.4654726249991654],[2.4654757079988485],,,,,,,599.8654945830003,599.8770392080005,599.8770392080005,629.8627022500004,narrator is talking about feeling good and how every strives to feel their best all the time. however that is not the reality ,0,,,,,,,,,,,,,,,,,,,,,,,,558.7103170419996,558.7177527919994,558.7177527919994,558.7177527919994,560.9255714169994,1,[2.2137070419994416],[2.213710333000563],595.7885330000008,595.7949485829995,599.8648783749995,1,[4.075726041000962],[4.075729333000709],629.8839695829993,629.8839695829993,,,,,p_11,001,2024-05-11_16h24.00.429,speech_rate,2023.2.3,None,2024-05-11 16h24.31.769571 -0700,
,Someday_115_condition.wav,Someday__Someday__Maybe__Unabridged___File_051_of_116_2.wav,All those people can't just be walking around starving and happening to look great all the time They must know something that the rest of us don't Or worse maybe there isn't a trick Maybe they are walking around hungry all the time Maybe that's the difference between being successful or unsuccessful Maybe I'm too weak I'm too concerned with feeling good to be willing to feel as bad as I should to be successful Why would feeling good be bad People spend their lives trying to feel good You're not supposed to walk around miserable all the time,What is the narrator's concern about the successful people she sees?,A. They are always happy,B. They are always starving themselves,C. They know a secret for good acting,D. They are too weak to succeed,B. They are always starving themselves,yes,29.49,,,,,,,,,,,,,0,1,1,1,0,0,0,0,,,,,,,,,,,,,,,,,,,,,,,,,,,,,,,,,,,,,,,,,,,,,,,,,,,,,,,,,,,,,,,,,,,,,,,,,,,,,,,,,,,,,,,,,,p_11,001,2024-05-11_16h24.00.429,speech_rate,2023.2.3,None,2024-05-11 16h24.31.769571 -0700,
,Someday_115_condition.wav,Someday__Someday__Maybe__Unabridged___File_051_of_116_2.wav,All those people can't just be walking around starving and happening to look great all the time They must know something that the rest of us don't Or worse maybe there isn't a trick Maybe they are walking around hungry all the time Maybe that's the difference between being successful or unsuccessful Maybe I'm too weak I'm too concerned with feeling good to be willing to feel as bad as I should to be successful Why would feeling good be bad People spend their lives trying to feel good You're not supposed to walk around miserable all the time,What is the narrator's concern about the successful people she sees?,A. They are always happy,B. They are always starving themselves,C. They know a secret for good acting,D. They are too weak to succeed,B. They are always starving themselves,yes,29.49,,,,,,,,,,,,,0,1,1,1,,,,,,,,,,,,,,,,,,,,,,,,,,,,,,,,,,,,,,,,,,,,,,,,,,,,,629.8631538749996,641.3973448329998,1,11.52249029199993,11.522493917000247,0,,,0,,,0,,,,,,,,,,,,,,,,,,,,,,,,,,,,,,p_11,001,2024-05-11_16h24.00.429,speech_rate,2023.2.3,None,2024-05-11 16h24.31.769571 -0700,
,Someday_91_condition-2x.wav,Someday__Someday__Maybe__Unabridged___File_040_of_116_0.wav,Please go ahead and begin your monologue whenever you're ready We can chat afterwards Take your time His words are encouraging but his face is neutral at best And when there are two people in a room and one of them is there purely to see the other person do something the notion that that person could actually take their time seems ridiculous But I try I try to take a deep breath but the air gets sort of stuck and doesn't go all the way down to my lungs I need a minute to calm down but I can't possibly take it,What is the narrator's reaction to the suggestion to take her time?,A. She feels comforted,B. She finds it ridiculous,C. She rejects the offer,D. She chats with the agent first,B. She finds it ridiculous,yes,14.29496875,,,,,,,,,,,,,0,2,2,2,0,0,0,0,0,0,0,0,665.2932444580001,,,,,,,,,,,,,,,644.8300896250003,644.8627239163329,644.8515440829997,659.147215500001,659.1649252080006,659.1863344169997,659.4514872500004,659.4514872500004,662.7310647079994,663.4689169579997,8.05,3.5201608749994193,1,[0.7473515830006363],[0.747354290999283],,,,,,,665.2821347499994,665.2932444580001,665.2932444580001,695.2819010000003,the narrator is talking about being nervous when saying a monoluge and she needs to take a deep breath,0,,,,,,,,,,,,,,,,,,,,,,,,641.3979486250009,641.4057628329992,641.4057628329992,641.4057628329992,644.8298893329993,1,[3.430215500000486],[3.430218583000169],663.469424375,663.479472250001,665.2814889170004,1,[1.8116713330000493],[1.8116747500007477],695.3021718330001,695.3021718330001,,,,,p_11,001,2024-05-11_16h24.00.429,speech_rate,2023.2.3,None,2024-05-11 16h24.31.769571 -0700,
,Someday_91_condition-2x.wav,Someday__Someday__Maybe__Unabridged___File_040_of_116_0.wav,Please go ahead and begin your monologue whenever you're ready We can chat afterwards Take your time His words are encouraging but his face is neutral at best And when there are two people in a room and one of them is there purely to see the other person do something the notion that that person could actually take their time seems ridiculous But I try I try to take a deep breath but the air gets sort of stuck and doesn't go all the way down to my lungs I need a minute to calm down but I can't possibly take it,What is the narrator's reaction to the suggestion to take her time?,A. She feels comforted,B. She finds it ridiculous,C. She rejects the offer,D. She chats with the agent first,B. She finds it ridiculous,yes,14.29496875,,,,,,,,,,,,,0,2,2,2,0,0,0,0,,,,,,,,,,,,,,,,,,,,,,,,,,,,,,,,,,,,,,,,,,,,,,,,,,,,,,,,,,,,,,,,,,,,,,,,,,,,,,,,,,,,,,,,,,p_11,001,2024-05-11_16h24.00.429,speech_rate,2023.2.3,None,2024-05-11 16h24.31.769571 -0700,
,Someday_91_condition-2x.wav,Someday__Someday__Maybe__Unabridged___File_040_of_116_0.wav,Please go ahead and begin your monologue whenever you're ready We can chat afterwards Take your time His words are encouraging but his face is neutral at best And when there are two people in a room and one of them is there purely to see the other person do something the notion that that person could actually take their time seems ridiculous But I try I try to take a deep breath but the air gets sort of stuck and doesn't go all the way down to my lungs I need a minute to calm down but I can't possibly take it,What is the narrator's reaction to the suggestion to take her time?,A. She feels comforted,B. She finds it ridiculous,C. She rejects the offer,D. She chats with the agent first,B. She finds it ridiculous,yes,14.29496875,,,,,,,,,,,,,0,2,2,2,,,,,,,,,,,,,,,,,,,,,,,,,,,,,,,,,,,,,,,,,,,,,,,,,,,,,695.2823627079997,707.6512657919993,0,,,0,,,1,12.358621958001095,12.358626582999932,0,,,,,,,,,,,,,,,,,,,,,,,,,,,,,,p_11,001,2024-05-11_16h24.00.429,speech_rate,2023.2.3,None,2024-05-11 16h24.31.769571 -0700,
,Someday_125_condition-5x.wav,Someday__Someday__Maybe__Unabridged___File_054_of_116_5.wav,I sit up as if he might be able to see through the telephone that I was lying down at an undignified hour still in the shorts and tank top I slept in I clear my throat and try to make my voice sound more awake It's me It's her That doesn't sound right It is I Hello I Did I wake you up No I'm awake Have a cold Oh shoot Is it a really bad one Joe has an audition for you I've just made an extremely speedy recovery Great Great,What does the narrator say she has?,A. A cold,B. A headache,C. A sore throat,D. A flu,A. A cold,no,5.986,,,,,,,,,,,,,0,3,3,3,,,,,,,,,707.658091542,,,,,,,,,,,,,,,710.08421275,710.0998702916661,710.0964788750007,716.0723991249997,716.087381667001,716.0985934170003,716.3652393329994,716.3652393329994,718.4437901670008,720.0123049579997,1,2.3178844590001972,1,[1.5776175829996646],[1.5776201249991573],,,,,,,,,,,,,,,720.0127422500009,724.4579331250006,0,,,1,4.438268374999097,4.4382722499995,0,,,0,,,,,,,,,,707.6518422080007,707.658091542,707.658091542,707.658091542,710.0839998749998,1,[2.4317331250003917],[2.4317364170001383],,,,,,,,,,,,,p_11,001,2024-05-11_16h24.00.429,speech_rate,2023.2.3,None,2024-05-11 16h24.31.769571 -0700,
,Someday_37_condition-3x.wav,Someday__Someday__Maybe__Unabridged___File_020_of_116_2.wav,If only I hadn't missed the chair if only I made better undergarment choices I Want to ask someone how bad it was exactly But the backstage area is so small that all the students here now are waiting for their turn and too nervous to talk Anyone who could have been watching from the wings is probably downstairs now in the green room smoking cigarettes and talking about themselves As much as I want feedback I don't feel like going down there I can face one person trying in vain to convince me it wasn't so bad but not a sea of pitying faces,What is preventing the narrator from asking someone about their performance?,A. Fear of a large crowd,B. Lack of interest in feedback,C. The small backstage area,D. Smoking cigarettes in the green room,C. The small backstage area,no,10.74375,,,,,,,,,,,,,0,4,4,4,,,,,,,,,724.4655375830007,,,,,,,,,,,,,,,725.2927345419994,725.3236057503332,725.3121141249994,736.0516850830008,736.069553667001,736.0807851249992,736.288314333,736.288314333,739.0232763330005,739.580219292,5.033333333333333,2.9182102089998807,1,[0.5659557080016384],[0.5659583330016176],,,,,,,,,,,,,,,739.5806437499996,750.8201462920006,0,,,1,11.229409499999747,11.229413041999578,0,,,0,,,,,,,,,,724.4583987080005,724.4655375830007,724.4655375830007,724.4655375830007,725.2924866249996,1,[0.8324012920002133],[0.8324051670006156],,,,,,,,,,,,,p_11,001,2024-05-11_16h24.00.429,speech_rate,2023.2.3,None,2024-05-11 16h24.31.769571 -0700,
,Someday_83_condition-3x.wav,Someday__Someday__Maybe__Unabridged___File_037_of_116_4.wav,I sound odd to myself as if I'm playing the part of a professional actress who has meetings all the time and is sort of blasé about them I loved Barney Sparks I want to tell Dan but I'm suspicious of anything that seems too easy I'm not sure why I can't say that now and not sure why I didn't jump at the chance to say yes in Barney's office It feels like I'm an actor in an Italian movie from the 60s saying the placeholder lines into the camera waiting for the real ones that come later,What is the narrator suspicious of?,A. Things that take too long,B. Things that are hard to do,C. Things that seem controversial,D. Things that seem too easy,D. Things that seem too easy,yes,10.88625,,,,,,,,,,,,,0,5,5,5,0,0,0,0,0,0,0,0,770.7197867920004,,,,,,,,,,,,,,,753.5077392500007,753.523351541666,753.5242027080003,764.4088859170006,764.410058042,764.4205190419998,764.6228503750008,764.6228503750008,768.1188034999996,769.2746322919993,5.933333333333334,3.6585923330003425,1,[1.180698250000205],[1.1807009160002053],,,,,,,770.6921290829996,770.7197867920004,770.7197867920004,788.2056824169995,she feels like she is an actor in a movie and she is too nervous to tell Dan,1,[17.510373499999332],[17.510377667000284],,,,,,,,,,,,,,,,,,,,,,750.820761125,750.8292310830002,750.8292310830002,750.8292310830002,753.5075122079998,1,[2.6844771249998303],[2.6844806660010363],769.2751730830005,769.2857854169997,770.6913133329999,1,[1.4155060829998547],[1.4155200830009562],,,,,,,p_11,001,2024-05-11_16h24.00.429,speech_rate,2023.2.3,None,2024-05-11 16h24.31.769571 -0700,
,Someday_83_condition-3x.wav,Someday__Someday__Maybe__Unabridged___File_037_of_116_4.wav,I sound odd to myself as if I'm playing the part of a professional actress who has meetings all the time and is sort of blasé about them I loved Barney Sparks I want to tell Dan but I'm suspicious of anything that seems too easy I'm not sure why I can't say that now and not sure why I didn't jump at the chance to say yes in Barney's office It feels like I'm an actor in an Italian movie from the 60s saying the placeholder lines into the camera waiting for the real ones that come later,What is the narrator suspicious of?,A. Things that take too long,B. Things that are hard to do,C. Things that seem controversial,D. Things that seem too easy,D. Things that seem too easy,yes,10.88625,,,,,,,,,,,,,0,5,5,5,0,0,0,0,,,,,,,,,,,,,,,,,,,,,,,,,,,,,,,,,,,,,,,,,,,,,,,,,,,,,,,,,,,,,,,,,,,,,,,,,,,,,,,,,,,,,,,,,,p_11,001,2024-05-11_16h24.00.429,speech_rate,2023.2.3,None,2024-05-11 16h24.31.769571 -0700,
,Someday_83_condition-3x.wav,Someday__Someday__Maybe__Unabridged___File_037_of_116_4.wav,I sound odd to myself as if I'm playing the part of a professional actress who has meetings all the time and is sort of blasé about them I loved Barney Sparks I want to tell Dan but I'm suspicious of anything that seems too easy I'm not sure why I can't say that now and not sure why I didn't jump at the chance to say yes in Barney's office It feels like I'm an actor in an Italian movie from the 60s saying the placeholder lines into the camera waiting for the real ones that come later,What is the narrator suspicious of?,A. Things that take too long,B. Things that are hard to do,C. Things that seem controversial,D. Things that seem too easy,D. Things that seem too easy,yes,10.88625,,,,,,,,,,,,,0,5,5,5,,,,,,,,,,,,,,,,,,,,,,,,,,,,,,,,,,,,,,,,,,,,,,,,,,,,,788.206146292001,797.3539826670003,0,,,1,9.138428416999886,9.138431332999971,0,,,0,,,,,,,,,,,,,,,,,,,,,,,,,,,,,,p_11,001,2024-05-11_16h24.00.429,speech_rate,2023.2.3,None,2024-05-11 16h24.31.769571 -0700,
,Someday_119_condition-5x.wav,Someday__Someday__Maybe__Unabridged___File_053_of_116_1.wav,But when did you start doing this I didn't see any of it in the fridge Yeah no that's the best part You don't have to refrigerate it It comes in a box It's freeze dried in a package and you just take it out and soak it You soak it It sounds weird I know but it's actually very convenient because you can take it anywhere you know on the go Why can't you just eat actual healthy food the kind that doesn't require soaking Well obviously because I can't be trusted to control myself This teaches you portion control,Why does the narrator prefer soaked food?,A. Because it helps with portion control,B. Because it tastes good,C. Becauseit is cheap,D. Because the friend likes it,A. Because it helps with portion control,yes,5.738,,,,,,,,,,,,,0,6,6,6,0,0,0,0,0,0,0,0,812.9687082500004,,,,,,,,,,,,,,,801.1230962499994,801.1385029586675,801.1350043750008,806.8720872499998,806.8828330420001,806.8940500000008,807.1325972920004,807.1325972920004,809.8381416249995,810.5179005419996,1,2.915678958001081,1,[0.692679040999792],[0.6926815829992847],,,,,,,812.9572355,812.9687082500004,812.9687082500004,814.4561675000004,,1,[1.4956784169989987],[1.4956818749997183],,,,,,,,,,,,,,,,,,,,,,797.3544154579995,797.3607807080007,797.3607807080007,797.3607807080007,801.1228419580002,1,[3.7666791659994487],[3.76668270799928],810.5184247920006,810.5233947079996,812.9562917500007,1,[2.4362877500007016],[2.436308416999964],,,,,,,p_11,001,2024-05-11_16h24.00.429,speech_rate,2023.2.3,None,2024-05-11 16h24.31.769571 -0700,
,Someday_119_condition-5x.wav,Someday__Someday__Maybe__Unabridged___File_053_of_116_1.wav,But when did you start doing this I didn't see any of it in the fridge Yeah no that's the best part You don't have to refrigerate it It comes in a box It's freeze dried in a package and you just take it out and soak it You soak it It sounds weird I know but it's actually very convenient because you can take it anywhere you know on the go Why can't you just eat actual healthy food the kind that doesn't require soaking Well obviously because I can't be trusted to control myself This teaches you portion control,Why does the narrator prefer soaked food?,A. Because it helps with portion control,B. Because it tastes good,C. Becauseit is cheap,D. Because the friend likes it,A. Because it helps with portion control,yes,5.738,,,,,,,,,,,,,0,6,6,6,0,0,0,0,,,,,,,,,,,,,,,,,,,,,,,,,,,,,,,,,,,,,,,,,,,,,,,,,,,,,,,,,,,,,,,,,,,,,,,,,,,,,,,,,,,,,,,,,,p_11,001,2024-05-11_16h24.00.429,speech_rate,2023.2.3,None,2024-05-11 16h24.31.769571 -0700,
,Someday_119_condition-5x.wav,Someday__Someday__Maybe__Unabridged___File_053_of_116_1.wav,But when did you start doing this I didn't see any of it in the fridge Yeah no that's the best part You don't have to refrigerate it It comes in a box It's freeze dried in a package and you just take it out and soak it You soak it It sounds weird I know but it's actually very convenient because you can take it anywhere you know on the go Why can't you just eat actual healthy food the kind that doesn't require soaking Well obviously because I can't be trusted to control myself This teaches you portion control,Why does the narrator prefer soaked food?,A. Because it helps with portion control,B. Because it tastes good,C. Becauseit is cheap,D. Because the friend likes it,A. Because it helps with portion control,yes,5.738,,,,,,,,,,,,,0,6,6,6,,,,,,,,,,,,,,,,,,,,,,,,,,,,,,,,,,,,,,,,,,,,,,,,,,,,,814.456568167001,823.7569520830002,1,9.291555208001228,9.29155829100091,0,,,0,,,0,,,,,,,,,,,,,,,,,,,,,,,,,,,,,,p_11,001,2024-05-11_16h24.00.429,speech_rate,2023.2.3,None,2024-05-11 16h24.31.769571 -0700,
,Someday_48_condition.wav,Someday__Someday__Maybe__Unabridged___File_025_of_116_1.wav,But why not It's every actor's dream to perform on Broadway I protest and she gives me an indulgent smile I don't mean to shit on your dreams sweetie but I'm mainly out of show business these days This is as close as I want to be to that life she says putting her arm around Leighton's waist I just lost what the point of it all was,What is every actor's dream according to the narrator?,A. Performing in front of 1000 people,B. Performing in a Hollywood movie,C. Performing in an independent movie,D. Performing in a Broadway play,D. Performing in a Broadway play,yes,20.67003125,,,,,,,,,,,,,0,7,7,7,0,0,0,0,0,0,0,0,851.2089526670006,,,,,,,,,,,,,,,826.7726296670007,826.8048484163342,826.7980632920007,847.4608807500008,847.4761600420006,847.4974976249996,847.6986151670008,847.6986151670008,849.4176707919996,850.2856800419995,9.925,1.8928959580007358,1,[0.8770550839999487],[0.8770583340010489],,,,,,,851.1964523330007,851.2089526670006,851.2089526670006,881.1927069169997,Her dream is to perform on broadway but the person rejects her and tells her she is no longer in the indis,0,,,,,,,,,,,,,,,,,,,,,,,,823.7574763329994,823.765091583,823.765091583,823.765091583,826.7724290829992,1,[3.012928833000842],[3.0129320830001234],850.2861699170007,850.3067938330005,851.1956533329994,1,[0.9084273330008727],[0.9084390000007261],881.2138924169994,881.2138924169994,,,,,p_11,001,2024-05-11_16h24.00.429,speech_rate,2023.2.3,None,2024-05-11 16h24.31.769571 -0700,
,Someday_48_condition.wav,Someday__Someday__Maybe__Unabridged___File_025_of_116_1.wav,But why not It's every actor's dream to perform on Broadway I protest and she gives me an indulgent smile I don't mean to shit on your dreams sweetie but I'm mainly out of show business these days This is as close as I want to be to that life she says putting her arm around Leighton's waist I just lost what the point of it all was,What is every actor's dream according to the narrator?,A. Performing in front of 1000 people,B. Performing in a Hollywood movie,C. Performing in an independent movie,D. Performing in a Broadway play,D. Performing in a Broadway play,yes,20.67003125,,,,,,,,,,,,,0,7,7,7,0,0,0,0,,,,,,,,,,,,,,,,,,,,,,,,,,,,,,,,,,,,,,,,,,,,,,,,,,,,,,,,,,,,,,,,,,,,,,,,,,,,,,,,,,,,,,,,,,p_11,001,2024-05-11_16h24.00.429,speech_rate,2023.2.3,None,2024-05-11 16h24.31.769571 -0700,
,Someday_48_condition.wav,Someday__Someday__Maybe__Unabridged___File_025_of_116_1.wav,But why not It's every actor's dream to perform on Broadway I protest and she gives me an indulgent smile I don't mean to shit on your dreams sweetie but I'm mainly out of show business these days This is as close as I want to be to that life she says putting her arm around Leighton's waist I just lost what the point of it all was,What is every actor's dream according to the narrator?,A. Performing in front of 1000 people,B. Performing in a Hollywood movie,C. Performing in an independent movie,D. Performing in a Broadway play,D. Performing in a Broadway play,yes,20.67003125,,,,,,,,,,,,,0,7,7,7,,,,,,,,,,,,,,,,,,,,,,,,,,,,,,,,,,,,,,,,,,,,,,,,,,,,,881.1931505419998,886.1425966250008,0,,,0,,,0,,,1,4.938494125000943,4.9384970419996534,,,,,,,,,,,,,,,,,,,,,,,,,,,,p_11,001,2024-05-11_16h24.00.429,speech_rate,2023.2.3,None,2024-05-11 16h24.31.769571 -0700,
,Someday_105_condition.wav,Someday__Someday__Maybe__Unabridged___File_047_of_116_1.wav,Like he was a person but from another planet or something But the longer I work for him the more I see he's just this guy this very unusually gorgeous extremely muscly guy who's sort of funny and sort of smart but who's a regular person who married the girl he dated in high school and doesn't seem to know how he got here He seems totally baffled by his success and he's always asking my opinion about things like his wardrobe or whatever And I'm wondering if he's forgotten I'm just the PA on my very first movie ever,What is the narrator's perception of the person she works for?,A. He's like a person from another planet,B. He's extremely muscly and smart,C. He's very confident and self-assured,D. He's just a regular person baffled by his success,D. He's just a regular person baffled by his success,yes,29.80996875,,,,,,,,,,,,,0,8,8,8,0,0,0,0,0,0,0,0,922.7834227080002,,,,,,,,,,,,,,,889.2596361249998,889.3085919579996,889.2991752079997,919.1018494580003,919.1197462920009,919.142036833,919.4099968749997,919.4099968749997,921.2296904579998,922.0233095830008,10,2.062856541000656,1,[0.8030716670000402],[0.8030744579991733],,,,,,,922.772322750001,922.7834227080002,922.7834227080002,946.9148544170002,she talking about this normal guy that married his high school girlfriend and who is always asking for her advice,1,[24.139351832998727],[24.139363041998877],,,,,,,,,,,,,,,,,,,,,,886.1430556670002,886.1481592079999,886.1481592079999,886.1481592079999,889.2594424170002,1,[3.115962458001377],[3.115965958000743],922.0238239169994,922.0444211249996,922.7715245830004,1,[0.7471257920005883],[0.7471292500013078],,,,,,,p_11,001,2024-05-11_16h24.00.429,speech_rate,2023.2.3,None,2024-05-11 16h24.31.769571 -0700,
,Someday_105_condition.wav,Someday__Someday__Maybe__Unabridged___File_047_of_116_1.wav,Like he was a person but from another planet or something But the longer I work for him the more I see he's just this guy this very unusually gorgeous extremely muscly guy who's sort of funny and sort of smart but who's a regular person who married the girl he dated in high school and doesn't seem to know how he got here He seems totally baffled by his success and he's always asking my opinion about things like his wardrobe or whatever And I'm wondering if he's forgotten I'm just the PA on my very first movie ever,What is the narrator's perception of the person she works for?,A. He's like a person from another planet,B. He's extremely muscly and smart,C. He's very confident and self-assured,D. He's just a regular person baffled by his success,D. He's just a regular person baffled by his success,yes,29.80996875,,,,,,,,,,,,,0,8,8,8,0,0,0,0,,,,,,,,,,,,,,,,,,,,,,,,,,,,,,,,,,,,,,,,,,,,,,,,,,,,,,,,,,,,,,,,,,,,,,,,,,,,,,,,,,,,,,,,,,p_11,001,2024-05-11_16h24.00.429,speech_rate,2023.2.3,None,2024-05-11 16h24.31.769571 -0700,
,Someday_105_condition.wav,Someday__Someday__Maybe__Unabridged___File_047_of_116_1.wav,Like he was a person but from another planet or something But the longer I work for him the more I see he's just this guy this very unusually gorgeous extremely muscly guy who's sort of funny and sort of smart but who's a regular person who married the girl he dated in high school and doesn't seem to know how he got here He seems totally baffled by his success and he's always asking my opinion about things like his wardrobe or whatever And I'm wondering if he's forgotten I'm just the PA on my very first movie ever,What is the narrator's perception of the person she works for?,A. He's like a person from another planet,B. He's extremely muscly and smart,C. He's very confident and self-assured,D. He's just a regular person baffled by his success,D. He's just a regular person baffled by his success,yes,29.80996875,,,,,,,,,,,,,0,8,8,8,,,,,,,,,,,,,,,,,,,,,,,,,,,,,,,,,,,,,,,,,,,,,,,,,,,,,946.9153666250004,955.097992125,0,,,0,,,0,,,1,8.17079025000021,8.17079725000076,,,,,,,,,,,,,,,,,,,,,,,,,,,,p_11,001,2024-05-11_16h24.00.429,speech_rate,2023.2.3,None,2024-05-11 16h24.31.769571 -0700,
,Someday_76_condition.wav,Someday__Someday__Maybe__Unabridged___File_035_of_116_4.wav,You're kidding No dear I'm a sucker for a klutz It's where you see what someone is made of My father the great Broadway director Irving Sparks always said anyone can smile on their best day I like to meet a man who can smile on his worst I was his assistant as a younger man just 19 years old sitting in the very last row in the audience of Best Foot Forward when a redheaded chorus girl took a terrible spill,Why was Barney Sparks' father's occupation?,A. He was a doctor,B. He was an actor,C. He was a Broadway director,D. He was an accountant,C. He was a Broadway director,no,26.16,,,,,,,,,,,,,0,9,9,9,,,,,,,,,955.1055522080005,,,,,,,,,,,,,,,957.3713592919994,957.403608500334,957.4065489170007,983.565984625,983.5679559170003,983.5902484580001,983.8515571669996,983.8515571669996,986.0662481250001,989.6103707080001,9.45,5.356468125000902,1,[3.553463207999812],[3.553465707998839],,,,,,,,,,,,,,,989.6107778749993,994.3654073329999,0,,,0,,,1,4.747028375000809,4.747031458000492,0,,,,,,,,,,955.0985208750008,955.1055522080005,955.1055522080005,955.1055522080005,957.3711292080006,1,[2.2706806250007503],[2.270684250001068],,,,,,,,,,,,,p_11,001,2024-05-11_16h24.00.429,speech_rate,2023.2.3,None,2024-05-11 16h24.31.769571 -0700,
,Someday_39_condition.wav,Someday__Someday__Maybe__Unabridged___File_021_of_116_1.wav,People who are admired for holding it together are not people who are about to get agents They're people who are recovering from cancer or undergoing a murder trial And I dropped a section I add hoping he'll say he didn't notice Yeah I know but I only know because I'm obsessed with that guy's work No one will dock you for that It's not exactly a glowing review but he doesn't seem totally horrified Still he's avoiding the thing I most want to know But when I fell I mean how bad was it,What does the narrator hope the person they are talking to will say?,A. That he didn't notice the mistake,B. That he noticed the dropped section,C. That he wants to be an agent,D. That he's obsessed with the narrator's work,A. That he didn't notice the mistake,yes,29.17996875,,,,,,,,,,,,,0,10,10,10,0,0,0,0,0,0,0,0,1033.4862041249999,,,,,,,,,,,,,,,997.4220433329992,997.4547198753339,997.4558047080009,1026.634850542001,1026.6363138329998,1026.6585897919995,1026.8594486250004,1026.8594486250004,1030.3521729999993,1032.5476243329995,9.933333333333334,5.190250917001322,1,[2.2052312920004624],[2.205234125000061],,,,,,,1033.4755108749996,1033.4862041249999,1033.4862041249999,1046.1352383329995,she is talking about a moment when she fell ,1,[12.656612249998943],[12.656615750000128],,,,,,,,,,,,,,,,,,,,,,994.365877708,994.3721986250002,994.3721986250002,994.3721986250002,997.4218518750004,1,[3.05431475000114],[3.0543178750012885],1032.5481235829993,1032.5526166670006,1033.4748115000002,1,[0.9262692499996774],[0.926272708000397],,,,,,,p_11,001,2024-05-11_16h24.00.429,speech_rate,2023.2.3,None,2024-05-11 16h24.31.769571 -0700,
,Someday_39_condition.wav,Someday__Someday__Maybe__Unabridged___File_021_of_116_1.wav,People who are admired for holding it together are not people who are about to get agents They're people who are recovering from cancer or undergoing a murder trial And I dropped a section I add hoping he'll say he didn't notice Yeah I know but I only know because I'm obsessed with that guy's work No one will dock you for that It's not exactly a glowing review but he doesn't seem totally horrified Still he's avoiding the thing I most want to know But when I fell I mean how bad was it,What does the narrator hope the person they are talking to will say?,A. That he didn't notice the mistake,B. That he noticed the dropped section,C. That he wants to be an agent,D. That he's obsessed with the narrator's work,A. That he didn't notice the mistake,yes,29.17996875,,,,,,,,,,,,,0,10,10,10,0,0,0,0,,,,,,,,,,,,,,,,,,,,,,,,,,,,,,,,,,,,,,,,,,,,,,,,,,,,,,,,,,,,,,,,,,,,,,,,,,,,,,,,,,,,,,,,,,p_11,001,2024-05-11_16h24.00.429,speech_rate,2023.2.3,None,2024-05-11 16h24.31.769571 -0700,
,Someday_39_condition.wav,Someday__Someday__Maybe__Unabridged___File_021_of_116_1.wav,People who are admired for holding it together are not people who are about to get agents They're people who are recovering from cancer or undergoing a murder trial And I dropped a section I add hoping he'll say he didn't notice Yeah I know but I only know because I'm obsessed with that guy's work No one will dock you for that It's not exactly a glowing review but he doesn't seem totally horrified Still he's avoiding the thing I most want to know But when I fell I mean how bad was it,What does the narrator hope the person they are talking to will say?,A. That he didn't notice the mistake,B. That he noticed the dropped section,C. That he wants to be an agent,D. That he's obsessed with the narrator's work,A. That he didn't notice the mistake,yes,29.17996875,,,,,,,,,,,,,0,10,10,10,,,,,,,,,,,,,,,,,,,,,,,,,,,,,,,,,,,,,,,,,,,,,,,,,,,,,1046.1356768330006,1055.1021958750007,1,8.956092374999571,8.95609508400048,0,,,0,,,0,,,,,,,,,,,,,,,,,,,,,,,,,,,,,,p_11,001,2024-05-11_16h24.00.429,speech_rate,2023.2.3,None,2024-05-11 16h24.31.769571 -0700,
,Someday_15_condition-2x.wav,Someday__Someday__Maybe__Unabridged___File_009_of_116_3.wav,Whenever Jane talks about Russell Blakely all I can picture is that line everybody was quoting from his last movie Steel Entrapment where he calls out to Cordelia Biscayne honey I'm home while hanging by one hand from the landing gear of a helicopter bare chested Today's special is from the set of Kill Time an assortment of bagels that were only out on the craft service table for about three hours but are not sadly accompanied by cream cheese and that Chinese rice thing that Dan likes which I don't think was too aggressively sneezed upon,What does Russell Blakely call out to Cordelia Biscayne in the movie Steel Entrapment?,A. "Sweetie I'm out",B. "Baby I'm back",C. "Darling I've arrived",D. "Honey I'm home",D. "Honey I'm home",yes,14.675,,,,,,,,,,,,,0,11,11,11,0,0,0,0,0,0,0,0,1077.4340914580007,,,,,,,,,,,,,,,1057.5710964999998,1057.586518416667,1057.5914010830002,1072.2595320830005,1072.2721836670007,1072.2834082919999,1072.5155671249995,1072.5155671249995,1075.303818792001,1076.3044238750008,5.008333333333333,2.9961912920007308,1,[1.0100457909993565],[1.0100485410002875],,,,,,,1077.422861250001,1077.4340914580007,1077.4340914580007,1090.0712128329997,cream cheese.,1,[12.64529095800026],[12.645294582998758],,,,,,,,,,,,,,,,,,,,,,1055.102668167001,1055.1090425000002,1055.1090425000002,1055.1090425000002,1057.5708462080001,1,[2.466446583001016],[2.466450125000847],1076.3049277499995,1076.3098229999996,1077.4220438749999,1,[1.1164735830006975],[1.1164767909995135],,,,,,,p_11,001,2024-05-11_16h24.00.429,speech_rate,2023.2.3,None,2024-05-11 16h24.31.769571 -0700,
,Someday_15_condition-2x.wav,Someday__Someday__Maybe__Unabridged___File_009_of_116_3.wav,Whenever Jane talks about Russell Blakely all I can picture is that line everybody was quoting from his last movie Steel Entrapment where he calls out to Cordelia Biscayne honey I'm home while hanging by one hand from the landing gear of a helicopter bare chested Today's special is from the set of Kill Time an assortment of bagels that were only out on the craft service table for about three hours but are not sadly accompanied by cream cheese and that Chinese rice thing that Dan likes which I don't think was too aggressively sneezed upon,What does Russell Blakely call out to Cordelia Biscayne in the movie Steel Entrapment?,A. "Sweetie I'm out",B. "Baby I'm back",C. "Darling I've arrived",D. "Honey I'm home",D. "Honey I'm home",yes,14.675,,,,,,,,,,,,,0,11,11,11,0,0,0,0,,,,,,,,,,,,,,,,,,,,,,,,,,,,,,,,,,,,,,,,,,,,,,,,,,,,,,,,,,,,,,,,,,,,,,,,,,,,,,,,,,,,,,,,,,p_11,001,2024-05-11_16h24.00.429,speech_rate,2023.2.3,None,2024-05-11 16h24.31.769571 -0700,
,Someday_15_condition-2x.wav,Someday__Someday__Maybe__Unabridged___File_009_of_116_3.wav,Whenever Jane talks about Russell Blakely all I can picture is that line everybody was quoting from his last movie Steel Entrapment where he calls out to Cordelia Biscayne honey I'm home while hanging by one hand from the landing gear of a helicopter bare chested Today's special is from the set of Kill Time an assortment of bagels that were only out on the craft service table for about three hours but are not sadly accompanied by cream cheese and that Chinese rice thing that Dan likes which I don't think was too aggressively sneezed upon,What does Russell Blakely call out to Cordelia Biscayne in the movie Steel Entrapment?,A. "Sweetie I'm out",B. "Baby I'm back",C. "Darling I've arrived",D. "Honey I'm home",D. "Honey I'm home",yes,14.675,,,,,,,,,,,,,0,11,11,11,,,,,,,,,,,,,,,,,,,,,,,,,,,,,,,,,,,,,,,,,,,,,,,,,,,,,1090.0716671249993,1096.85820375,0,,,0,,,0,,,1,6.774880082999516,6.7748836659993685,,,,,,,,,,,,,,,,,,,,,,,,,,,,p_11,001,2024-05-11_16h24.00.429,speech_rate,2023.2.3,None,2024-05-11 16h24.31.769571 -0700,
,Someday_33_condition-3x.wav,Someday__Someday__Maybe__Unabridged___File_018_of_116_2.wav,Well I wouldn't say I'd be amazing in it although thanks for saying so I think I'd just be okay in it I mean it is sort of right in my wheelhouse but I think you'd actually be great in it I'm serious I mean I could do it I guess and I probably would do it if they asked but I think my problem with it isn't the play itself but the guy who's in it now What's his name Anyway it doesn't matter I just think he's not really acting so much as just smoldering or something up there and I'm like buddy you can't just play every scene sexy I mean that's not an active choice,What issue does the narrator have with the actor currently in the play?,A. She thinks he's too active,B. She believes he's too serious,C. She thinks he's smoldering too much,D. She has no issue with him,C. She thinks he's smoldering too much,yes,11.45625,,,,,,,,,,,,,0,12,12,12,0,0,0,0,0,0,0,0,1114.9509292080002,,,,,,,,,,,,,,,1099.5455772919995,1099.561118083666,1099.5629655829998,1111.0133162500006,1111.0246548750001,1111.0459444999997,1111.2739500419993,1111.2739500419993,1113.2551372920007,1114.1012023750009,7.041666666666666,2.169580166000742,1,[0.870770999999877],[0.8707736670003214],,,,,,,1114.939738250001,1114.9509292080002,1114.9509292080002,1139.0497652079994,the narrator doesn't like the guy in the play. she thinks he is arrogant and should not play in every scene,1,[24.106894375001502],[24.10689900000034],,,,,,,,,,,,,,,,,,,,,,1096.858785208,1096.8721339170006,1096.8721339170006,1096.8721339170006,1099.5453540830003,1,[2.6848939580013393],[2.6848973329997534],1114.1016975420007,1114.1221548329995,1114.939126917001,1,[0.836919500001386],[0.836922833999779],,,,,,,p_11,001,2024-05-11_16h24.00.429,speech_rate,2023.2.3,None,2024-05-11 16h24.31.769571 -0700,
,Someday_33_condition-3x.wav,Someday__Someday__Maybe__Unabridged___File_018_of_116_2.wav,Well I wouldn't say I'd be amazing in it although thanks for saying so I think I'd just be okay in it I mean it is sort of right in my wheelhouse but I think you'd actually be great in it I'm serious I mean I could do it I guess and I probably would do it if they asked but I think my problem with it isn't the play itself but the guy who's in it now What's his name Anyway it doesn't matter I just think he's not really acting so much as just smoldering or something up there and I'm like buddy you can't just play every scene sexy I mean that's not an active choice,What issue does the narrator have with the actor currently in the play?,A. She thinks he's too active,B. She believes he's too serious,C. She thinks he's smoldering too much,D. She has no issue with him,C. She thinks he's smoldering too much,yes,11.45625,,,,,,,,,,,,,0,12,12,12,0,0,0,0,,,,,,,,,,,,,,,,,,,,,,,,,,,,,,,,,,,,,,,,,,,,,,,,,,,,,,,,,,,,,,,,,,,,,,,,,,,,,,,,,,,,,,,,,,p_11,001,2024-05-11_16h24.00.429,speech_rate,2023.2.3,None,2024-05-11 16h24.31.769571 -0700,
,Someday_33_condition-3x.wav,Someday__Someday__Maybe__Unabridged___File_018_of_116_2.wav,Well I wouldn't say I'd be amazing in it although thanks for saying so I think I'd just be okay in it I mean it is sort of right in my wheelhouse but I think you'd actually be great in it I'm serious I mean I could do it I guess and I probably would do it if they asked but I think my problem with it isn't the play itself but the guy who's in it now What's his name Anyway it doesn't matter I just think he's not really acting so much as just smoldering or something up there and I'm like buddy you can't just play every scene sexy I mean that's not an active choice,What issue does the narrator have with the actor currently in the play?,A. She thinks he's too active,B. She believes he's too serious,C. She thinks he's smoldering too much,D. She has no issue with him,C. She thinks he's smoldering too much,yes,11.45625,,,,,,,,,,,,,0,12,12,12,,,,,,,,,,,,,,,,,,,,,,,,,,,,,,,,,,,,,,,,,,,,,,,,,,,,,1139.0502483750006,1149.8788099169997,0,,,0,,,1,10.818288749998828,10.818295375000162,0,,,,,,,,,,,,,,,,,,,,,,,,,,,,,,p_11,001,2024-05-11_16h24.00.429,speech_rate,2023.2.3,None,2024-05-11 16h24.31.769571 -0700,
,Someday_67_condition-2x.wav,Someday__Someday__Maybe__Unabridged___File_033_of_116_1.wav,Well I'm doing all right I guess I imagine myself saying but I'm about three inches from where I really want to be I think of how much effort has taken me to even be a 29 I can't imagine what else I could do to be a 26 but it makes sense too that the Cordelia Biscaynes of the world are literally measurably different from the rest of us Three inches might as well be 300 to me today Hi I'm Carol,What size does the narrator wear?,A. 29,B. 26,C. 30,D. 28,A. 29,no,14.635,,,,,,,,,,,,,0,13,13,13,,,,,,,,,1149.891694625001,,,,,,,,,,,,,,,1152.9598544580003,1152.975359416667,1152.979100208,1167.6333279169994,1167.6143997079998,1167.6255955830002,1167.8800513330007,1167.8800513330007,1171.777468792001,1172.6224855830005,8.241666666666667,4.1278097909998905,1,[0.8539737920000334],[0.8539765839996107],,,,,,,,,,,,,,,1172.6229604580003,1176.1426699999993,0,,,1,3.5116932919991086,3.5116963340005896,0,,,0,,,,,,,,,,1149.879460958,1149.891694625001,1149.891694625001,1149.891694625001,1152.9595787920007,1,[3.0796495829999913],[3.0796529999988707],,,,,,,,,,,,,p_11,001,2024-05-11_16h24.00.429,speech_rate,2023.2.3,None,2024-05-11 16h24.31.769571 -0700,
,Someday_51_condition.wav,Someday__Someday__Maybe__Unabridged___File_025_of_116_4.wav,And he says Dina pauses as if the next part of the story is particularly hard to tell And he says only two things will happen with this One it's a giant hit and you're thanking me every year at the Emmys Or two they'll make the pilot it won't work it'll never air There's no scenario in between If for some reason they put this on the air and it isn't 100 fantastic he said it'll never last Dina and Leighton say together Then Dina slaps her palm to her forehead as if she still can't believe it,What does Dina do after telling the story?,A. She shakes her head,B. She slaps her palm to her forehead,C. She cries,D. She sits in silence,B. She slaps her palm to her forehead,yes,29.91996875,,,,,,,,,,,,,0,14,14,14,0,0,0,0,0,0,0,0,1213.450853833001,,,,,,,,,,,,,,,1177.9774911669992,1178.0268250420002,1178.0166055000009,1207.9350902080005,1207.9485828329998,1207.9708532919994,1208.181209792001,1208.181209792001,1211.4838940829995,1211.9802466670008,9.95,3.4883415840013186,1,[0.5055328749986074],[0.5055362499988405],,,,,,,1213.439392708,1213.450853833001,1213.450853833001,1243.4385370420005,they are talking about the sucess of their show and whther or not it will havea great impact. one of the people is saying tjay it w,0,,,,,,,,,,,,,,,,,,,,,,,,1176.1431296669998,1176.1490506669998,1176.1490506669998,1176.1490506669998,1177.9773003749997,1,[1.8328387919991656],[1.8328419589997793],1211.980757667001,1211.9856142919998,1213.4388161250008,1,[1.4574995830007538],[1.4575026660004369],1243.4569099580003,1243.4569099580003,,,,,p_11,001,2024-05-11_16h24.00.429,speech_rate,2023.2.3,None,2024-05-11 16h24.31.769571 -0700,
,Someday_51_condition.wav,Someday__Someday__Maybe__Unabridged___File_025_of_116_4.wav,And he says Dina pauses as if the next part of the story is particularly hard to tell And he says only two things will happen with this One it's a giant hit and you're thanking me every year at the Emmys Or two they'll make the pilot it won't work it'll never air There's no scenario in between If for some reason they put this on the air and it isn't 100 fantastic he said it'll never last Dina and Leighton say together Then Dina slaps her palm to her forehead as if she still can't believe it,What does Dina do after telling the story?,A. She shakes her head,B. She slaps her palm to her forehead,C. She cries,D. She sits in silence,B. She slaps her palm to her forehead,yes,29.91996875,,,,,,,,,,,,,0,14,14,14,0,0,0,0,,,,,,,,,,,,,,,,,,,,,,,,,,,,,,,,,,,,,,,,,,,,,,,,,,,,,,,,,,,,,,,,,,,,,,,,,,,,,,,,,,,,,,,,,,p_11,001,2024-05-11_16h24.00.429,speech_rate,2023.2.3,None,2024-05-11 16h24.31.769571 -0700,
,Someday_51_condition.wav,Someday__Someday__Maybe__Unabridged___File_025_of_116_4.wav,And he says Dina pauses as if the next part of the story is particularly hard to tell And he says only two things will happen with this One it's a giant hit and you're thanking me every year at the Emmys Or two they'll make the pilot it won't work it'll never air There's no scenario in between If for some reason they put this on the air and it isn't 100 fantastic he said it'll never last Dina and Leighton say together Then Dina slaps her palm to her forehead as if she still can't believe it,What does Dina do after telling the story?,A. She shakes her head,B. She slaps her palm to her forehead,C. She cries,D. She sits in silence,B. She slaps her palm to her forehead,yes,29.91996875,,,,,,,,,,,,,0,14,14,14,,,,,,,,,,,,,,,,,,,,,,,,,,,,,,,,,,,,,,,,,,,,,,,,,,,,,1243.4389931669994,1248.1246446250007,0,,,1,4.676905832999182,4.676909624999098,0,,,0,,,,,,,,,,,,,,,,,,,,,,,,,,,,,,p_11,001,2024-05-11_16h24.00.429,speech_rate,2023.2.3,None,2024-05-11 16h24.31.769571 -0700,
,Someday_89_condition.wav,Someday__Someday__Maybe__Unabridged___File_039_of_116_2.wav,Excuse me can you tell me what day of the week it is they'll say and laugh I'm leaning awkwardly against the wall near the door not sure what to do while I wait Maybe I should sit Plenty of people use sitting as a way to pass the time I look at the giant table and multitude of chairs Unless a bunch of people are going to join us this seems a strange room to choose for a meeting of two Yes I think I'll sit But I'm not sure which spot to choose I'm not totally sure I even want to sit yet,Why does the narrator feel uncertain about sitting in the room?,A. She is worried about her outfit,B. She doesn't know which chair to choose,C. She prefers to stand,D. She has somewhere else to be,B. She doesn't know which chair to choose,no,28.69,,,,,,,,,,,,,0,15,15,15,,,,,,,,,1248.13254375,,,,,,,,,,,,,,,1250.7321188749993,1250.764260458333,1250.7632177079995,1279.459762292001,1279.4614370830004,1279.4837715419999,1279.7451370830004,1279.7451370830004,1281.8223778749998,1282.4282672080008,10,2.313325999999506,1,[0.6154429170001094],[0.6154454999996233],,,,,,,,,,,,,,,1282.4286970829999,1287.465642792,0,,,1,5.028294208999796,5.0282973749999655,0,,,0,,,,,,,,,,1248.1252307920004,1248.13254375,1248.13254375,1248.13254375,1250.7318708330004,1,[2.604935082999873],[2.604938582999239],,,,,,,,,,,,,p_11,001,2024-05-11_16h24.00.429,speech_rate,2023.2.3,None,2024-05-11 16h24.31.769571 -0700,
,Someday_21_condition-3x.wav,Someday__Someday__Maybe__Unabridged___File_013_of_116_0.wav,But I guess he was like she already has an agent at Absolute and she's got two movies in the can so like you know fine just one more beanpole to deal with This is the kind of confidence you're supposed to have as an actress I think I mean I would personally never announce that I had an agent at Absolute Artists the best agency in town or talk about movies I'd done or refer to myself as a beanpole especially loudly and in a room full of people But then again in my case none of those things are TRUE,What is the narrator's stance on sharing personal accomplishments in public?,A. The narrator believes in confidently announcing her achievements,B. The narrator prefers to keep her agent and acting achievements private,C. The narrator doesn't have a strong opinion on this,D. The narrator feels it's necessary to talk loudly about her successes to gain recognition,D. The narrator feels it's necessary to talk loudly about her successes to gain recognition,no,11.04375,,,,,,,,,,,,,0,16,16,16,,,,,,,,,1287.4720097499994,,,,,,,,,,,,,,,1289.922188083001,1289.9377323336669,1289.9383753750008,1300.9684672500007,1300.9861727919997,1300.997390167,1301.2009054169994,1301.2009054169994,1304.7393801670005,1305.395851958001,4.5,3.717187041998841,1,[0.6659628750003321],[0.6659656669999094],,,,,,,,,,,,,,,1305.3962992079996,1316.9354882919997,0,,,1,11.527565207999942,11.52756891700119,0,,,0,,,,,,,,,,1287.4660912500003,1287.4720097499994,1287.4720097499994,1287.4720097499994,1289.9219546669992,1,[2.4544581249992916],[2.454461583000011],,,,,,,,,,,,,p_11,001,2024-05-11_16h24.00.429,speech_rate,2023.2.3,None,2024-05-11 16h24.31.769571 -0700,
,Someday_62_condition-4x.wav,Someday__Someday__Maybe__Unabridged___File_030_of_116_1.wav,Maybe he'd think I'd played the part dozens of times That would teach the anonymous voice to respect me At the Old Horse Theater in Princeton New Jersey he said Did I detect a hint of sarcasm in his voice OK thanks There was a silence on the other end Any other details Well it's none of my business but I'd never heard of it So I looked it up and that theater doesn't seem to exist,Why did he look up the Old Horse Theater?,A. To have some information about it,B. To apply for a role there,C. To learn about its upcoming shows,"D. To plan a trip to Princeton, New Jersey",A. To have some information about it,no,7.1875,,,,,,,,,,,,,0,17,17,17,,,,,,,,,1316.9433223750002,,,,,,,,,,,,,,,1318.751852583,1318.7675802496672,1318.7656279170005,1325.952008667,1325.9577409169997,1325.9689978330007,1326.1695693750007,1326.1695693750007,1328.4346336670005,1328.9804523330004,1.7333333333333334,2.436834457999794,1,[0.558327165999799],[0.5583297909997782],,,,,,,,,,,,,,,1328.9808914580008,1339.4106567079998,0,,,0,,,1,10.420289499999853,10.42029249999905,0,,,,,,,,,,1316.936045333001,1316.9433223750002,1316.9433223750002,1316.9433223750002,1318.7516329169994,1,[1.8138708749993384],[1.8138746669992543],,,,,,,,,,,,,p_11,001,2024-05-11_16h24.00.429,speech_rate,2023.2.3,None,2024-05-11 16h24.31.769571 -0700,
,Someday_4_condition-5x.wav,Someday__Someday__Maybe__Unabridged___File_005_of_116_3.wav,You told me you'd try if I let you I promised I'd make sure I take a deep breath and I bellow in my most diaphragmatically supported Shakespearean tone Dan come in Miraculously the left side of Dan's face appears through a crack in the door but it's not until he's confirmed my fully covered status and stepped all the way into the room leaning his oversized frame awkwardly against the corner bookshelf that I suddenly remember My hair,What does the narrator suddenly remember when Dan enters the room?,A. Her hair,B. A book,C. Her appointment,D. A phone call,A. Her hair,no,5.986,,,,,,,,,,,,,0,18,18,18,,,,,,,,,1339.4185214169993,,,,,,,,,,,,,,,1341.7351732080006,1341.751143499667,1341.7475961250002,1347.7267244579998,1347.73975875,1347.7505934170003,1347.9559887079995,1347.9559887079995,1349.9585189169993,1351.2160483749994,1,2.1817809590011166,1,[1.2667626669990568],[1.2667655419991206],,,,,,,,,,,,,,,1351.2165210830008,1356.4384169580007,1,5.213654832999964,5.213658375001614,0,,,0,,,0,,,,,,,,,,1339.411111083,1339.4185214169993,1339.4185214169993,1339.4185214169993,1341.7349867920002,1,[2.323442792001515],[2.3234459170016635],,,,,,,,,,,,,p_11,001,2024-05-11_16h24.00.429,speech_rate,2023.2.3,None,2024-05-11 16h24.31.769571 -0700,
,Someday_5_condition-4x.wav,Someday__Someday__Maybe__Unabridged___File_005_of_116_4.wav,I am late Frank is the neighbor whose apartment we can see into from the windows in the back of our brownstone Frank leads a mysterious solitary life but one you can set a clock by He rises at eight sits in front of a computer from nine to one goes out and gets a sandwich is back at the computer from two until six thirty is gone from six thirty to eight and then watches TV from eight until eleven p m after which he goes promptly to sleep The schedule never changes No one ever comes over,"Who is Frank, and what is his daily routine?","A. Frank is the narrator's neighbor, and he works from home.","B. Frank is the narrator's roommate, and he works from home.","C. Frank is the narrator's friend, and he enjoys watching TV all day.","D. Frank is the narrator's landlord, and he travels frequently.","A. Frank is the narrator's neighbor, and he works from home.",no,7.4425,,,,,,,,,,,,,0,19,19,19,,,,,,,,,1356.446072625,,,,,,,,,,,,,,,1358.0104809999993,1358.0260482496672,1358.0246461250008,1365.4712478750007,1365.4732186250003,1365.4844508749993,1365.6890192499995,1365.6890192499995,1367.3390029170005,1368.2217086670007,1.1833333333333333,1.828868540998883,1,[0.8931010420001257],[0.8931047080004646],,,,,,,,,,,,,,,1368.2221435829997,1375.7558509169994,0,,,0,,,1,7.522453999999925,7.522457542001575,0,,,,,,,,,,1356.4389485829997,1356.446072625,1356.446072625,1356.446072625,1358.0102630000001,1,[1.569790917001228],[1.5697949170007632],,,,,,,,,,,,,p_11,001,2024-05-11_16h24.00.429,speech_rate,2023.2.3,None,2024-05-11 16h24.31.769571 -0700,
,Someday_96_condition-2x.wav,Someday__Someday__Maybe__Unabridged___File_042_of_116_0.wav,My point is about the competitive thing I've always naturally made everything a competition in a way so I already know I'm tough and it actually comes sort of easily to me And I'm not afraid to be hurt or rejected because I have naturally low self esteem anyway So I always expect the worst which is weird because I also have a vision for myself where I can totally picture succeeding well almost totally on a good day And I'm quick and I'm sure that whatever I don't know yet I can learn quickly because I'm quick which I know I just said because I'm quick Ha ha get it,How does the narrator feel about competition and their ability to succeed?,A. She is afraid of competition,B. She is quick to learn and not afraid of failure,C. She has low self-esteem and avoids competition,D. She believes in the concept of competition,B. She is quick to learn and not afraid of failure,yes,14.24,,,,,,,,,,,,,0,20,20,20,0,0,0,0,0,0,0,0,1396.219161125,,,,,,,,,,,,,,,1377.68978325,1377.7049882916674,1377.7087701250002,1391.946312917,1391.9484677920009,1391.9596830419996,1392.1625865000005,1392.1625865000005,1394.3785829579992,1395.2297269169994,10,2.3943444579999777,1,[0.8600391250001849],[0.8600419169997622],,,,,,,1396.2077625830007,1396.219161125,1396.219161125,1424.9923521250003,the narraotr is saying that she is very competitive and makes evrything a competition. she is also saying that she is quick,1,[28.781436457999007],[28.781440791999557],,,,,,,,,,,,,,,,,,,,,,1375.7564725829998,1375.7641342080005,1375.7641342080005,1375.7641342080005,1377.689489708,1,[1.9310901669996383],[1.9310935840003367],1395.2302601249994,1395.2384257920003,1396.2069678749995,1,[0.9762413749995176],[0.9762447089997295],,,,,,,p_11,001,2024-05-11_16h24.00.429,speech_rate,2023.2.3,None,2024-05-11 16h24.31.769571 -0700,
,Someday_96_condition-2x.wav,Someday__Someday__Maybe__Unabridged___File_042_of_116_0.wav,My point is about the competitive thing I've always naturally made everything a competition in a way so I already know I'm tough and it actually comes sort of easily to me And I'm not afraid to be hurt or rejected because I have naturally low self esteem anyway So I always expect the worst which is weird because I also have a vision for myself where I can totally picture succeeding well almost totally on a good day And I'm quick and I'm sure that whatever I don't know yet I can learn quickly because I'm quick which I know I just said because I'm quick Ha ha get it,How does the narrator feel about competition and their ability to succeed?,A. She is afraid of competition,B. She is quick to learn and not afraid of failure,C. She has low self-esteem and avoids competition,D. She believes in the concept of competition,B. She is quick to learn and not afraid of failure,yes,14.24,,,,,,,,,,,,,0,20,20,20,0,0,0,0,,,,,,,,,,,,,,,,,,,,,,,,,,,,,,,,,,,,,,,,,,,,,,,,,,,,,,,,,,,,,,,,,,,,,,,,,,,,,,,,,,,,,,,,,,p_11,001,2024-05-11_16h24.00.429,speech_rate,2023.2.3,None,2024-05-11 16h24.31.769571 -0700,
,Someday_96_condition-2x.wav,Someday__Someday__Maybe__Unabridged___File_042_of_116_0.wav,My point is about the competitive thing I've always naturally made everything a competition in a way so I already know I'm tough and it actually comes sort of easily to me And I'm not afraid to be hurt or rejected because I have naturally low self esteem anyway So I always expect the worst which is weird because I also have a vision for myself where I can totally picture succeeding well almost totally on a good day And I'm quick and I'm sure that whatever I don't know yet I can learn quickly because I'm quick which I know I just said because I'm quick Ha ha get it,How does the narrator feel about competition and their ability to succeed?,A. She is afraid of competition,B. She is quick to learn and not afraid of failure,C. She has low self-esteem and avoids competition,D. She believes in the concept of competition,B. She is quick to learn and not afraid of failure,yes,14.24,,,,,,,,,,,,,0,20,20,20,,,,,,,,,,,,,,,,,,,,,,,,,,,,,,,,,,,,,,,,,,,,,,,,,,,,,1424.9928122500005,1433.2597398750004,0,,,1,8.255798541000331,8.255802540999866,0,,,0,,,,,,,,,,,,,,,,,,,,,,,,,,,,,,p_11,001,2024-05-11_16h24.00.429,speech_rate,2023.2.3,None,2024-05-11 16h24.31.769571 -0700,
,Someday_41_condition-5x.wav,Someday__Someday__Maybe__Unabridged___File_022_of_116_0.wav,And even if I give it more thought and someday decide I'm very definitely against wearing the same animal that brings Easter baskets to little children it's not really like me to judge someone else for her rabbit related choices Penelope's face falls and she looks down at her jacket You know she says it is real I wasn't sure about it myself but it was my mother's and so I figured it's vintage She trails off and absently runs her fingers over the silky white collar,What does Penelope say about her rabbit fur jacket?,A. It's fake,B. It's vintage,C. It's for Easter,D. It's her sister's,B. It's vintage,yes,5.764,,,,,,,,,,,,,0,21,21,21,0,0,0,0,0,0,0,0,1448.4276800419993,,,,,,,,,,,,,,,1437.8430699170003,1437.8585213746667,1437.8546959579999,1443.625710458,1443.627881333001,1443.6391267500003,1443.9022298750006,1443.9022298750006,1445.4933486249993,1446.4934460420009,1.1083333333333332,1.8292376659992442,1,[1.0095468330000585],[1.0095510419996572],,,,,,,1448.4154015000004,1448.4276800419993,1448.4276800419993,1449.2838340420003,,1,[0.8650510419993225],[0.8650547090001055],,,,,,,,,,,,,,,,,,,,,,1433.2603166669996,1433.2681157080006,1433.2681157080006,1433.2681157080006,1437.8427892079999,1,[4.5807467909999104],[4.580754832999446],1446.4939664579997,1446.4989000000005,1448.4138134999994,1,[1.9182456670005195],[1.9182622090011137],,,,,,,p_11,001,2024-05-11_16h24.00.429,speech_rate,2023.2.3,None,2024-05-11 16h24.31.769571 -0700,
,Someday_41_condition-5x.wav,Someday__Someday__Maybe__Unabridged___File_022_of_116_0.wav,And even if I give it more thought and someday decide I'm very definitely against wearing the same animal that brings Easter baskets to little children it's not really like me to judge someone else for her rabbit related choices Penelope's face falls and she looks down at her jacket You know she says it is real I wasn't sure about it myself but it was my mother's and so I figured it's vintage She trails off and absently runs her fingers over the silky white collar,What does Penelope say about her rabbit fur jacket?,A. It's fake,B. It's vintage,C. It's for Easter,D. It's her sister's,B. It's vintage,yes,5.764,,,,,,,,,,,,,0,21,21,21,0,0,0,0,,,,,,,,,,,,,,,,,,,,,,,,,,,,,,,,,,,,,,,,,,,,,,,,,,,,,,,,,,,,,,,,,,,,,,,,,,,,,,,,,,,,,,,,,,p_11,001,2024-05-11_16h24.00.429,speech_rate,2023.2.3,None,2024-05-11 16h24.31.769571 -0700,
,Someday_41_condition-5x.wav,Someday__Someday__Maybe__Unabridged___File_022_of_116_0.wav,And even if I give it more thought and someday decide I'm very definitely against wearing the same animal that brings Easter baskets to little children it's not really like me to judge someone else for her rabbit related choices Penelope's face falls and she looks down at her jacket You know she says it is real I wasn't sure about it myself but it was my mother's and so I figured it's vintage She trails off and absently runs her fingers over the silky white collar,What does Penelope say about her rabbit fur jacket?,A. It's fake,B. It's vintage,C. It's for Easter,D. It's her sister's,B. It's vintage,yes,5.764,,,,,,,,,,,,,0,21,21,21,,,,,,,,,,,,,,,,,,,,,,,,,,,,,,,,,,,,,,,,,,,,,,,,,,,,,1449.2842287919993,1455.2592550000008,0,,,0,,,0,,,1,5.966434083000422,5.966437458000655,,,,,,,,,,,,,,,,,,,,,,,,,,,,p_11,001,2024-05-11_16h24.00.429,speech_rate,2023.2.3,None,2024-05-11 16h24.31.769571 -0700,
,Someday_111_condition-5x.wav,Someday__Someday__Maybe__Unabridged___File_048_of_116_4.wav,Where would he have gotten the picture You see them on the street sometimes I don't know I'm just saying It's occurred to me Because other than him that one very famous person do you recognize anyone else on that wall Well there's that cast photo from Cats with all the people in their cat costumes I don't recognize them individually but as a group they seem authentic But besides the somewhat believable cats Wait yes There's that actress My mother loved her She was on that detective show in the 60s,What are the narrator and her friend discussing on the wall?,A. A picture of a famous person,B. A cast photo from the musical Cats,C. A detective show from the '60s,D. Pictures of people on the street,A. A picture of a famous person,yes,5.902,,,,,,,,,,,,,0,22,22,22,0,0,0,0,0,0,0,0,1467.5436345420003,,,,,,,,,,,,,,,1457.4777560420007,1457.4929402496675,1457.4885020830006,1463.393638292,1463.3969297500007,1463.4077884580001,1463.6134800830005,1463.6134800830005,1465.492317708,1466.2778496669998,1.575,2.0573604999990494,1,[0.7978650000004563],[0.7978676660004567],,,,,,,1467.5319547500003,1467.5436345420003,1467.5436345420003,1469.0840897920007,,1,[1.5489014999984647],[1.548904749999565],,,,,,,,,,,,,,,,,,,,,,1455.2597178750002,1455.265829125001,1455.265829125001,1455.265829125001,1457.4774684999993,1,[2.2160337919995072],[2.2160371669997403],1466.2783411250002,1466.2831149579997,1467.5311594579998,1,[1.2521570830012934],[1.2521645830001944],,,,,,,p_11,001,2024-05-11_16h24.00.429,speech_rate,2023.2.3,None,2024-05-11 16h24.31.769571 -0700,
,Someday_111_condition-5x.wav,Someday__Someday__Maybe__Unabridged___File_048_of_116_4.wav,Where would he have gotten the picture You see them on the street sometimes I don't know I'm just saying It's occurred to me Because other than him that one very famous person do you recognize anyone else on that wall Well there's that cast photo from Cats with all the people in their cat costumes I don't recognize them individually but as a group they seem authentic But besides the somewhat believable cats Wait yes There's that actress My mother loved her She was on that detective show in the 60s,What are the narrator and her friend discussing on the wall?,A. A picture of a famous person,B. A cast photo from the musical Cats,C. A detective show from the '60s,D. Pictures of people on the street,A. A picture of a famous person,yes,5.902,,,,,,,,,,,,,0,22,22,22,0,0,0,0,,,,,,,,,,,,,,,,,,,,,,,,,,,,,,,,,,,,,,,,,,,,,,,,,,,,,,,,,,,,,,,,,,,,,,,,,,,,,,,,,,,,,,,,,,p_11,001,2024-05-11_16h24.00.429,speech_rate,2023.2.3,None,2024-05-11 16h24.31.769571 -0700,
,Someday_111_condition-5x.wav,Someday__Someday__Maybe__Unabridged___File_048_of_116_4.wav,Where would he have gotten the picture You see them on the street sometimes I don't know I'm just saying It's occurred to me Because other than him that one very famous person do you recognize anyone else on that wall Well there's that cast photo from Cats with all the people in their cat costumes I don't recognize them individually but as a group they seem authentic But besides the somewhat believable cats Wait yes There's that actress My mother loved her She was on that detective show in the 60s,What are the narrator and her friend discussing on the wall?,A. A picture of a famous person,B. A cast photo from the musical Cats,C. A detective show from the '60s,D. Pictures of people on the street,A. A picture of a famous person,yes,5.902,,,,,,,,,,,,,0,22,22,22,,,,,,,,,,,,,,,,,,,,,,,,,,,,,,,,,,,,,,,,,,,,,,,,,,,,,1469.0844242080002,1480.6684200830005,0,,,0,,,1,11.575421250001455,11.575425334000101,0,,,,,,,,,,,,,,,,,,,,,,,,,,,,,,p_11,001,2024-05-11_16h24.00.429,speech_rate,2023.2.3,None,2024-05-11 16h24.31.769571 -0700,
,Someday_46_condition-3x.wav,Someday__Someday__Maybe__Unabridged___File_024_of_116_2.wav,I almost quit show business tonight I say a little breathless still astonished to have gone from complete despair to something like euphoria in such a short time Again You just quit two weeks ago I did You're a sensitive kid she says laughing That's okay you'll get tougher Let's have non farewell to show business drinks instead I'm meeting Leighton at Joe Allen Want to join Dina and I sit at the glossy wood bar at Joe Allen crowded with actors whose shows have just let out and patrons who've come from the theater,What is Dina inviting the narrator to?,A. Tea at her place,B. Drinks at a bar,C. Dinner at a restaurant,D. Party at an actor's house,B. Drinks at a bar,yes,11.2125,,,,,,,,,,,,,0,23,23,23,0,0,0,0,0,0,0,0,1497.7284277079998,,,,,,,,,,,,,,,1482.498677208001,1482.5117329586667,1482.5168959170005,1493.728407083001,1493.7298907919994,1493.7411338330003,1493.9472802500004,1493.9472802500004,1495.9499166669993,1496.7563927499996,4.891666666666667,2.1841458330000023,1,[0.8157900839996728],[0.8157927919983194],,,,,,,1497.7170029169993,1497.7284277079998,1497.7284277079998,1518.838035625,she is talking about how she quit something and is mentions actors and a theatre,1,[21.11778937499912],[21.117792707998888],,,,,,,,,,,,,,,,,,,,,,1480.6688767079995,1480.6765020420007,1480.6765020420007,1480.6765020420007,1482.4979134580008,1,[1.8271310420004738],[1.8271565420000115],1496.75688325,1496.7772061249998,1497.7161626670004,1,[0.9585046249994775],[0.9585175000011077],,,,,,,p_11,001,2024-05-11_16h24.00.429,speech_rate,2023.2.3,None,2024-05-11 16h24.31.769571 -0700,
,Someday_46_condition-3x.wav,Someday__Someday__Maybe__Unabridged___File_024_of_116_2.wav,I almost quit show business tonight I say a little breathless still astonished to have gone from complete despair to something like euphoria in such a short time Again You just quit two weeks ago I did You're a sensitive kid she says laughing That's okay you'll get tougher Let's have non farewell to show business drinks instead I'm meeting Leighton at Joe Allen Want to join Dina and I sit at the glossy wood bar at Joe Allen crowded with actors whose shows have just let out and patrons who've come from the theater,What is Dina inviting the narrator to?,A. Tea at her place,B. Drinks at a bar,C. Dinner at a restaurant,D. Party at an actor's house,B. Drinks at a bar,yes,11.2125,,,,,,,,,,,,,0,23,23,23,0,0,0,0,,,,,,,,,,,,,,,,,,,,,,,,,,,,,,,,,,,,,,,,,,,,,,,,,,,,,,,,,,,,,,,,,,,,,,,,,,,,,,,,,,,,,,,,,,p_11,001,2024-05-11_16h24.00.429,speech_rate,2023.2.3,None,2024-05-11 16h24.31.769571 -0700,
,Someday_46_condition-3x.wav,Someday__Someday__Maybe__Unabridged___File_024_of_116_2.wav,I almost quit show business tonight I say a little breathless still astonished to have gone from complete despair to something like euphoria in such a short time Again You just quit two weeks ago I did You're a sensitive kid she says laughing That's okay you'll get tougher Let's have non farewell to show business drinks instead I'm meeting Leighton at Joe Allen Want to join Dina and I sit at the glossy wood bar at Joe Allen crowded with actors whose shows have just let out and patrons who've come from the theater,What is Dina inviting the narrator to?,A. Tea at her place,B. Drinks at a bar,C. Dinner at a restaurant,D. Party at an actor's house,B. Drinks at a bar,yes,11.2125,,,,,,,,,,,,,0,23,23,23,,,,,,,,,,,,,,,,,,,,,,,,,,,,,,,,,,,,,,,,,,,,,,,,,,,,,1518.838566417,1525.0482553330003,1,6.200887832999797,6.200891332999163,0,,,0,,,0,,,,,,,,,,,,,,,,,,,,,,,,,,,,,,p_11,001,2024-05-11_16h24.00.429,speech_rate,2023.2.3,None,2024-05-11 16h24.31.769571 -0700,
,Someday_38_condition.wav,Someday__Someday__Maybe__Unabridged___File_021_of_116_0.wav,Standing this close to him for the second time it occurs to me that his scarf is homemade and I feel a pang of jealousy wondering who knit it for him I like to be cold I say in what I hope is an appealing yet mysterious way that will make him regret not calling me while trying not to shiver Did you were you just in there I ask eyeing him carefully please God say no In the audience Yeah I was standing in the back It's over They just had curtain call,What does the narrator feel jealous about?,A. The actor's performance,B. The actor's homemade scarf,C. The audience's response,D. The actor's phone call,B. The actor's homemade scarf,no,29.53,,,,,,,,,,,,,0,24,24,24,,,,,,,,,1525.0565425000004,,,,,,,,,,,,,,,1527.5981559579996,1527.6302962083341,1527.6327968749993,1557.1540435829993,1557.1677729170005,1557.1897054170004,1557.443325792001,1557.443325792001,1560.2875930419996,1560.8614308329998,10,3.073633542000607,1,[0.5828571669990197],[0.5828599999986182],,,,,,,,,,,,,,,1560.8618732079995,1565.4353107080005,0,,,1,4.565195125000173,4.565198959000554,0,,,0,,,,,,,,,,1525.0488558750003,1525.0565425000004,1525.0565425000004,1525.0565425000004,1527.5978986249993,1,[2.547263958000258],[2.547267166999518],,,,,,,,,,,,,p_11,001,2024-05-11_16h24.00.429,speech_rate,2023.2.3,None,2024-05-11 16h24.31.769571 -0700,
,Someday_57_condition-2x.wav,Someday__Someday__Maybe__Unabridged___File_027_of_116_5.wav,I imagine being in the cast of that show and having to listen to people talk about the chandelier as their favorite part I don't know how to respond Then I remember that Everett said she had a meeting the next day I uh just found out tonight actually that I'm going to have some meetings with agents I say trying to bridge the gap Oh meetings she says like some people might say Oh ice cream or oh free diamonds Yep I'm going to have two of them actually,What does the narrator fantasize about while talking to Everett?,A. Being a famous actress,B. Being in the cast of a show,C. Traveling the world,D. Writing a novel,B. Being in the cast of a show,yes,14.47496875,,,,,,,,,,,,,0,25,25,25,0,0,0,0,0,0,0,0,1587.1494825000009,,,,,,,,,,,,,,,1567.6998885419998,1567.7158342086661,1567.7185837079996,1582.200402333001,1582.2023729169996,1582.2136187920005,1582.4149834170003,1582.4149834170003,1584.8774447079995,1585.7853610830007,9.958333333333334,2.6361742919998505,1,[0.9170191670000349],[0.9170223750006699],,,,,,,1587.1372648750003,1587.1494825000009,1587.1494825000009,1617.1361827500004,the narraor talks about a chandelier and her friend mentions that she has meetings as if she is easily able to get them with agents,0,,,,,,,,,,,,,,,,,,,,,,,,1565.4359012919995,1565.449093583,1565.449093583,1565.449093583,1567.699702,1,[2.262142457999289],[2.2621454159998393],1585.7858977920005,1585.799242250001,1587.136500083001,1,[1.3500567920000321],[1.3500606249999691],1617.1543194580008,1617.1543194580008,,,,,p_11,001,2024-05-11_16h24.00.429,speech_rate,2023.2.3,None,2024-05-11 16h24.31.769571 -0700,
,Someday_57_condition-2x.wav,Someday__Someday__Maybe__Unabridged___File_027_of_116_5.wav,I imagine being in the cast of that show and having to listen to people talk about the chandelier as their favorite part I don't know how to respond Then I remember that Everett said she had a meeting the next day I uh just found out tonight actually that I'm going to have some meetings with agents I say trying to bridge the gap Oh meetings she says like some people might say Oh ice cream or oh free diamonds Yep I'm going to have two of them actually,What does the narrator fantasize about while talking to Everett?,A. Being a famous actress,B. Being in the cast of a show,C. Traveling the world,D. Writing a novel,B. Being in the cast of a show,yes,14.47496875,,,,,,,,,,,,,0,25,25,25,0,0,0,0,,,,,,,,,,,,,,,,,,,,,,,,,,,,,,,,,,,,,,,,,,,,,,,,,,,,,,,,,,,,,,,,,,,,,,,,,,,,,,,,,,,,,,,,,,p_11,001,2024-05-11_16h24.00.429,speech_rate,2023.2.3,None,2024-05-11 16h24.31.769571 -0700,
,Someday_57_condition-2x.wav,Someday__Someday__Maybe__Unabridged___File_027_of_116_5.wav,I imagine being in the cast of that show and having to listen to people talk about the chandelier as their favorite part I don't know how to respond Then I remember that Everett said she had a meeting the next day I uh just found out tonight actually that I'm going to have some meetings with agents I say trying to bridge the gap Oh meetings she says like some people might say Oh ice cream or oh free diamonds Yep I'm going to have two of them actually,What does the narrator fantasize about while talking to Everett?,A. Being a famous actress,B. Being in the cast of a show,C. Traveling the world,D. Writing a novel,B. Being in the cast of a show,yes,14.47496875,,,,,,,,,,,,,0,25,25,25,,,,,,,,,,,,,,,,,,,,,,,,,,,,,,,,,,,,,,,,,,,,,,,,,,,,,1617.1366412080006,1622.254038000001,0,,,1,5.10837066699969,5.108374666999225,0,,,0,,,,,,,,,,,,,,,,,,,,,,,,,,,,,,p_11,001,2024-05-11_16h24.00.429,speech_rate,2023.2.3,None,2024-05-11 16h24.31.769571 -0700,
,Someday_109_condition.wav,Someday__Someday__Maybe__Unabridged___File_048_of_116_2.wav,Think about it There's a reason they keep the actual dry cleaning apparatus hidden behind all those racks of hanging clothes They don't want you to crack their code They won't let anybody in Not anybody Even rich people You know any rich people with dry cleaning machines in their house Exactly Even they still have to pick it up and drop it off like everyone else I'm pretty sure they have people who do that for them But still the dry cleaners own you You're at their mercy Clothes that have to be dry cleaned look down on you,What does the narrator talk about?,A. Acting,B. Shopping,C. How to get rich,D. Dry cleaning,D. Dry cleaning,yes,29.27,,,,,,,,,,,,,0,26,26,26,0,0,0,0,0,0,0,0,1658.9195081670005,,,,,,,,,,,,,,,1624.4786387500008,1624.5104880003332,1624.5111101250004,1653.777125083001,1653.7815118750004,1653.792609917,1654.0521549999994,1654.0521549999994,1656.0887066670002,1657.0306263750008,9.941666666666666,2.2713531669996883,1,[0.9515175420001469],[0.9515203749997454],,,,,,,1658.9076745830007,1658.9195081670005,1658.9195081670005,1681.7144741249995,the narrator talks about the power of dry cleaners and how they own us. Even rich people go to them,1,[22.80337091600086],[22.803375416000563],,,,,,,,,,,,,,,,,,,,,,1622.254618375,1622.2623187080007,1622.2623187080007,1622.2623187080007,1624.4783473749994,1,[2.2217553749997023],[2.2217587909999565],1657.0312030000005,1657.0365963330005,1658.9069512080005,1,[1.8752047079997283],[1.8752087499997288],,,,,,,p_11,001,2024-05-11_16h24.00.429,speech_rate,2023.2.3,None,2024-05-11 16h24.31.769571 -0700,
,Someday_109_condition.wav,Someday__Someday__Maybe__Unabridged___File_048_of_116_2.wav,Think about it There's a reason they keep the actual dry cleaning apparatus hidden behind all those racks of hanging clothes They don't want you to crack their code They won't let anybody in Not anybody Even rich people You know any rich people with dry cleaning machines in their house Exactly Even they still have to pick it up and drop it off like everyone else I'm pretty sure they have people who do that for them But still the dry cleaners own you You're at their mercy Clothes that have to be dry cleaned look down on you,What does the narrator talk about?,A. Acting,B. Shopping,C. How to get rich,D. Dry cleaning,D. Dry cleaning,yes,29.27,,,,,,,,,,,,,0,26,26,26,0,0,0,0,,,,,,,,,,,,,,,,,,,,,,,,,,,,,,,,,,,,,,,,,,,,,,,,,,,,,,,,,,,,,,,,,,,,,,,,,,,,,,,,,,,,,,,,,,p_11,001,2024-05-11_16h24.00.429,speech_rate,2023.2.3,None,2024-05-11 16h24.31.769571 -0700,
,Someday_109_condition.wav,Someday__Someday__Maybe__Unabridged___File_048_of_116_2.wav,Think about it There's a reason they keep the actual dry cleaning apparatus hidden behind all those racks of hanging clothes They don't want you to crack their code They won't let anybody in Not anybody Even rich people You know any rich people with dry cleaning machines in their house Exactly Even they still have to pick it up and drop it off like everyone else I'm pretty sure they have people who do that for them But still the dry cleaners own you You're at their mercy Clothes that have to be dry cleaned look down on you,What does the narrator talk about?,A. Acting,B. Shopping,C. How to get rich,D. Dry cleaning,D. Dry cleaning,yes,29.27,,,,,,,,,,,,,0,26,26,26,,,,,,,,,,,,,,,,,,,,,,,,,,,,,,,,,,,,,,,,,,,,,,,,,,,,,1681.7149416249995,1684.839742958,0,,,0,,,0,,,1,3.1162986250001268,3.1163022500004445,,,,,,,,,,,,,,,,,,,,,,,,,,,,p_11,001,2024-05-11_16h24.00.429,speech_rate,2023.2.3,None,2024-05-11 16h24.31.769571 -0700,
,Someday_34_condition-3x.wav,Someday__Someday__Maybe__Unabridged___File_019_of_116_2.wav,Who falls on stage wearing nothing but a bathrobe Why Why Why Why The monologue was going so well too or at least I think it was I'm not sure of anything now The audience seemed to be laughing in all the right places That's actually what threw me I think Their laughter threw my whole rhythm off having to wait until it died down before I could continue But still it was all okay until I tried to sit down The stage was just so dark and the lights were in my eyes,What disrupted the narrator's monologue performance?,A. The audience's laughter,B. The noise from the backstage,C. The unexpected props,D. The malfunctioning lights,A. The audience's laughter,yes,11.31375,,,,,,,,,,,,,0,27,27,27,0,0,0,0,0,0,0,0,1702.6261840829993,,,,,,,,,,,,,,,1686.7905077920004,1686.8061328746664,1686.806733042,1698.1140169579994,1698.1251282920002,1698.1363297499993,1698.3828339169995,1698.3828339169995,1700.7743611669994,1701.5683981670009,9.933333333333334,2.613547541001026,1,[0.8035744579992752],[0.8035770000005868],,,,,,,1702.6153778749995,1702.6261840829993,1702.6261840829993,1732.6151852500006,the narrator talks about falling on stage in a bathrobe and how the audience was laughing. She thinks her performance went well until she sat down,0,,,,,,,,,,,,,,,,,,,,,,,,1684.8402507499995,1684.8466897920007,1684.8466897920007,1684.8466897920007,1686.79027675,1,[1.9483075419993838],[1.9483105420003994],1701.568880375,1701.5890366250005,1702.614331750001,1,[1.0448406670002441],[1.0448440000000119],,,,,,,p_11,001,2024-05-11_16h24.00.429,speech_rate,2023.2.3,None,2024-05-11 16h24.31.769571 -0700,
,Someday_34_condition-3x.wav,Someday__Someday__Maybe__Unabridged___File_019_of_116_2.wav,Who falls on stage wearing nothing but a bathrobe Why Why Why Why The monologue was going so well too or at least I think it was I'm not sure of anything now The audience seemed to be laughing in all the right places That's actually what threw me I think Their laughter threw my whole rhythm off having to wait until it died down before I could continue But still it was all okay until I tried to sit down The stage was just so dark and the lights were in my eyes,What disrupted the narrator's monologue performance?,A. The audience's laughter,B. The noise from the backstage,C. The unexpected props,D. The malfunctioning lights,A. The audience's laughter,yes,11.31375,,,,,,,,,,,,,0,27,27,27,0,0,0,0,,,,,,,,,,,,,,,,,,,,,,,,,,,,,,,,,,,,,,,,,,,,,,,,,,,,,,,,,,,,,,,,,,,,,,,,,,,,,,,,,,,,,,,,,,p_11,001,2024-05-11_16h24.00.429,speech_rate,2023.2.3,None,2024-05-11 16h24.31.769571 -0700,
,Someday_34_condition-3x.wav,Someday__Someday__Maybe__Unabridged___File_019_of_116_2.wav,Who falls on stage wearing nothing but a bathrobe Why Why Why Why The monologue was going so well too or at least I think it was I'm not sure of anything now The audience seemed to be laughing in all the right places That's actually what threw me I think Their laughter threw my whole rhythm off having to wait until it died down before I could continue But still it was all okay until I tried to sit down The stage was just so dark and the lights were in my eyes,What disrupted the narrator's monologue performance?,A. The audience's laughter,B. The noise from the backstage,C. The unexpected props,D. The malfunctioning lights,A. The audience's laughter,yes,11.31375,,,,,,,,,,,,,0,27,27,27,,,,,,,,,,,,,,,,,,,,,,,,,,,,,,,,,,,,,,,,,,,,,,,,,,,,,1732.6155616670003,1738.9102473750008,0,,,0,,,0,,,1,6.284962833000463,6.284966541999893,,,,,,,,,,,,,,,,,,,,,,,,,,,,p_11,001,2024-05-11_16h24.00.429,speech_rate,2023.2.3,None,2024-05-11 16h24.31.769571 -0700,
,Someday_80_condition-5x.wav,Someday__Someday__Maybe__Unabridged___File_037_of_116_1.wav,I'm happy someone's up happy not to come home to a darkened house after the long day I've had Very good he says looking impressed It's not that hard to recognize You must have rented it five times already this month I know he says smiling sheepishly I hope I'm not driving you guys crazy Jane was watching it for a while but gave up and went to sleep She said the last time she sat through the whole thing she dreamt she was eaten by her pillow It's almost over Want to watch the end with me,What did Jane see in her dream the last time she saw the movie?,A. That is was flying with a penguin,B. That she was sailing during a storm,C. That she was chased by a pirate,D. That she was eaten by her pillow,D. That she was eaten by her pillow,no,5.874,,,,,,,,,,,,,0,28,28,28,,,,,,,,,1738.9172457919994,,,,,,,,,,,,,,,1741.5491536249992,1741.5646400416665,1741.5611336670008,1747.4340221250004,1747.4465586250008,1747.4576538330002,1747.724558375001,1747.724558375001,1749.531929750001,1750.4772767499999,1,2.049615583000559,1,[0.9547999580008764],[0.954802665999523],,,,,,,,,,,,,,,1750.4777092080003,1761.5218420420006,0,,,1,11.035156792000635,11.03516049999962,0,,,0,,,,,,,,,,1738.9108660830007,1738.9172457919994,1738.9172457919994,1738.9172457919994,1741.5489592499998,1,[2.6375731250009267],[2.6375765829998272],,,,,,,,,,,,,p_11,001,2024-05-11_16h24.00.429,speech_rate,2023.2.3,None,2024-05-11 16h24.31.769571 -0700,
,Someday_20_condition-2x.wav,Someday__Someday__Maybe__Unabridged___File_012_of_116_1.wav,Upstairs the waiting room is crowded which means there must be a few different casting calls There are boys and girls near the age of the elevator twins a couple of men in their 50s both in suit and tie and several girls who remind me of me but a better more put together me the me who would play me in the TV movie of the fictional life of the real me I sign in Name time arrived time scheduled agency social security number,What observation does the narrator make about the individuals in the waiting room?,A. They are all likely there for the same casting call,B. They are unorganized and scattered,"C. They appear to be different versions of the narrator, better and more composed",D. They are unrelated to the narrator's field of work,"C. They appear to be different versions of the narrator, better and more composed",no,13.73,,,,,,,,,,,,,0,29,29,29,,,,,,,,,1761.5294371670007,,,,,,,,,,,,,,,1763.4451921670006,1763.4606841666666,1763.4635922920006,1777.1856115419996,1777.1969995830004,1777.208231875,1777.4116001250004,1777.4116001250004,1779.5166761250002,1780.1800734999997,9.933333333333334,2.2839996659986355,1,[0.6725627910000185],[0.6725657910010341],,,,,,,,,,,,,,,1780.1805535000003,1798.873899708,0,,,0,,,1,18.682381917000384,18.682385459000216,0,,,,,,,,,,1761.522428708,1761.5294371670007,1761.5294371670007,1761.5294371670007,1763.4449577920004,1,[1.920768042000418],[1.9207715000011376],,,,,,,,,,,,,p_11,001,2024-05-11_16h24.00.429,speech_rate,2023.2.3,None,2024-05-11 16h24.31.769571 -0700,
,Someday_114_condition-2x.wav,Someday__Someday__Maybe__Unabridged___File_051_of_116_0.wav,You know in general for show business I think that's why I'm not getting any calls from the agency What do you think is the right way to look You know more like these girls on still nursing I gesture toward the television where a buxom blonde in a short skirt and open doctor's coat is struggling to reattach the IV of an elderly male patient by straddling his hospital bed accidentally smothering him with her cleavage The studio audience screams with laughter,What TV show does the narrator reference in their conversation about appearances?,A. A cooking show,B. A crime show,C. A sitcom called "Still Nursing",D. A reality show,C. A sitcom called "Still Nursing",yes,14.34,,,,,,,,,,,,,0,30,30,30,0,0,0,0,0,0,0,0,1824.0146036669994,,,,,,,,,,,,,,,1801.163958792,1801.1794163336674,1801.1837441669995,1815.5177273749996,1815.5327272499999,1815.5437619580007,1815.7488249580001,1815.7488249580001,1821.8487525420005,1822.8589844580001,10,6.280122582998956,1,[1.0193067919990426],[1.019309291999889],,,,,,,1824.0022264580002,1824.0146036669994,1824.0146036669994,1853.9987534169995,the narrator talks about having to look like these other girls in order to get casted into the show. She talks about her role playing a nurse,0,,,,,,,,,,,,,,,,,,,,,,,,1798.8744876670007,1798.8816012080006,1798.8816012080006,1798.8816012080006,1801.1636947919997,1,[2.2873830839998845],[2.2873866250010906],1822.859537833001,1822.8646974999992,1824.001433542,1,[1.1406562920001306],[1.140662625000914],1854.0179300830005,1854.0179300830005,,,,,p_11,001,2024-05-11_16h24.00.429,speech_rate,2023.2.3,None,2024-05-11 16h24.31.769571 -0700,
,Someday_114_condition-2x.wav,Someday__Someday__Maybe__Unabridged___File_051_of_116_0.wav,You know in general for show business I think that's why I'm not getting any calls from the agency What do you think is the right way to look You know more like these girls on still nursing I gesture toward the television where a buxom blonde in a short skirt and open doctor's coat is struggling to reattach the IV of an elderly male patient by straddling his hospital bed accidentally smothering him with her cleavage The studio audience screams with laughter,What TV show does the narrator reference in their conversation about appearances?,A. A cooking show,B. A crime show,C. A sitcom called "Still Nursing",D. A reality show,C. A sitcom called "Still Nursing",yes,14.34,,,,,,,,,,,,,0,30,30,30,0,0,0,0,,,,,,,,,,,,,,,,,,,,,,,,,,,,,,,,,,,,,,,,,,,,,,,,,,,,,,,,,,,,,,,,,,,,,,,,,,,,,,,,,,,,,,,,,,p_11,001,2024-05-11_16h24.00.429,speech_rate,2023.2.3,None,2024-05-11 16h24.31.769571 -0700,
,Someday_114_condition-2x.wav,Someday__Someday__Maybe__Unabridged___File_051_of_116_0.wav,You know in general for show business I think that's why I'm not getting any calls from the agency What do you think is the right way to look You know more like these girls on still nursing I gesture toward the television where a buxom blonde in a short skirt and open doctor's coat is struggling to reattach the IV of an elderly male patient by straddling his hospital bed accidentally smothering him with her cleavage The studio audience screams with laughter,What TV show does the narrator reference in their conversation about appearances?,A. A cooking show,B. A crime show,C. A sitcom called "Still Nursing",D. A reality show,C. A sitcom called "Still Nursing",yes,14.34,,,,,,,,,,,,,0,30,30,30,,,,,,,,,,,,,,,,,,,,,,,,,,,,,,,,,,,,,,,,,,,,,,,,,,,,,1853.999216708,1861.0936784580008,0,,,0,,,1,7.085149000000456,7.08515270800126,0,,,,,,,,,,,,,,,,,,,,,,,,,,,,,,p_11,001,2024-05-11_16h24.00.429,speech_rate,2023.2.3,None,2024-05-11 16h24.31.769571 -0700,
,Someday_45_condition-5x.wav,Someday__Someday__Maybe__Unabridged___File_024_of_116_1.wav,She's one of my best friends in class but I wonder sometimes how she feels about having gone from the lead of a hit TV show to commercials which is mainly what she does now and not the kind where she's playing Dina Shannon formerly of the hit show There's Pierre but just a regular actor pretending to like one brand of orange juice over another Anything she says flicking an ash on the ground Um yeah actually I got two callbacks with agencies Yeah she says you only need one,"What show did Dina, the actress, use to lead?",A. Friends,B. There's Pierre,C. Cordelia Biscayne,D. The House of Mirth,B. There's Pierre,yes,5.804,,,,,,,,,,,,,0,31,31,31,0,0,0,0,0,0,0,0,1880.8004521250004,,,,,,,,,,,,,,,1870.0676320830007,1870.083418874667,1870.0803472919997,1875.8842345419998,1875.8904549580002,1875.901673458,1876.1678639580005,1876.1678639580005,1878.8331443330007,1879.6853339999998,1.0583333333333333,2.903597540998817,1,[0.8649892089997593],[0.8649917919992731],,,,,,,1880.7730731249994,1880.8004521250004,1880.8004521250004,1881.675150125,,1,[0.8987655420005467],[0.8987700420002511],,,,,,,,,,,,,,,,,,,,,,1861.0942282920005,1861.1007937499999,1861.1007937499999,1861.1007937499999,1870.0673960830009,1,[8.971437165999305],[8.97144408299937],1879.6858499579994,1879.6905475000003,1880.7724256670008,1,[1.0860499160007748],[1.0860536660002253],,,,,,,p_11,001,2024-05-11_16h24.00.429,speech_rate,2023.2.3,None,2024-05-11 16h24.31.769571 -0700,
,Someday_45_condition-5x.wav,Someday__Someday__Maybe__Unabridged___File_024_of_116_1.wav,She's one of my best friends in class but I wonder sometimes how she feels about having gone from the lead of a hit TV show to commercials which is mainly what she does now and not the kind where she's playing Dina Shannon formerly of the hit show There's Pierre but just a regular actor pretending to like one brand of orange juice over another Anything she says flicking an ash on the ground Um yeah actually I got two callbacks with agencies Yeah she says you only need one,"What show did Dina, the actress, use to lead?",A. Friends,B. There's Pierre,C. Cordelia Biscayne,D. The House of Mirth,B. There's Pierre,yes,5.804,,,,,,,,,,,,,0,31,31,31,0,0,0,0,,,,,,,,,,,,,,,,,,,,,,,,,,,,,,,,,,,,,,,,,,,,,,,,,,,,,,,,,,,,,,,,,,,,,,,,,,,,,,,,,,,,,,,,,,p_11,001,2024-05-11_16h24.00.429,speech_rate,2023.2.3,None,2024-05-11 16h24.31.769571 -0700,
,Someday_45_condition-5x.wav,Someday__Someday__Maybe__Unabridged___File_024_of_116_1.wav,She's one of my best friends in class but I wonder sometimes how she feels about having gone from the lead of a hit TV show to commercials which is mainly what she does now and not the kind where she's playing Dina Shannon formerly of the hit show There's Pierre but just a regular actor pretending to like one brand of orange juice over another Anything she says flicking an ash on the ground Um yeah actually I got two callbacks with agencies Yeah she says you only need one,"What show did Dina, the actress, use to lead?",A. Friends,B. There's Pierre,C. Cordelia Biscayne,D. The House of Mirth,B. There's Pierre,yes,5.804,,,,,,,,,,,,,0,31,31,31,,,,,,,,,,,,,,,,,,,,,,,,,,,,,,,,,,,,,,,,,,,,,,,,,,,,,1881.6756017080006,1887.718773083001,0,,,0,,,1,6.03413270800047,6.034136292000767,0,,,,,,,,,,,,,,,,,,,,,,,,,,,,,,p_11,001,2024-05-11_16h24.00.429,speech_rate,2023.2.3,None,2024-05-11 16h24.31.769571 -0700,
