index,wav_file,old_name,segment_text,question,C1,C2,C3,C4,C_correct,summary,duration,training.thisRepN,training.thisTrialN,training.thisN,training.thisIndex,sum_true.thisRepN,sum_true.thisTrialN,sum_true.thisN,sum_true.thisIndex,dummy_loop.thisRepN,dummy_loop.thisTrialN,dummy_loop.thisN,dummy_loop.thisIndex,experiment.thisRepN,experiment.thisTrialN,experiment.thisN,experiment.thisIndex,sum_true_exp.thisRepN,sum_true_exp.thisTrialN,sum_true_exp.thisN,sum_true_exp.thisIndex,dummy_loop_exp.thisRepN,dummy_loop_exp.thisTrialN,dummy_loop_exp.thisN,dummy_loop_exp.thisIndex,thisRow.t,notes,Experimenter.started,reminder.started,Experimenter.stopped,Instructions.started,Instructions.stopped,Start_Segment_Train.started,Play_train.started,Trial_counter_train.started,text_5.started,Start_Segment_Train.stopped,Play_train.numClicks,Play_train.timesOn,Play_train.timesOff,Training_Segment.started,Experimen_audio.started,polygon.started,polygon.stopped,Training_Segment.stopped,Rating.started,slider.started,text_3.started,button_2.started,Rating.stopped,slider.response,slider.rt,button_2.numClicks,button_2.timesOn,button_2.timesOff,Start_Summary.started,text_2.started,Start_Summary.stopped,summary_button.numClicks,summary_button.timesOn,summary_button.timesOff,Summary.started,textbox.started,summary_done.started,Summary.stopped,textbox.text,summary_done.numClicks,summary_done.timesOn,summary_done.timesOff,Multiple_Choice_2.started,Multiple_Choice_2.stopped,A.numClicks,A.timesOn,A.timesOff,B.numClicks,B.timesOn,B.timesOff,C.numClicks,C.timesOn,C.timesOff,D.numClicks,D.timesOn,D.timesOff,Start_Exp.started,Start_exp.started,Start.started,Start_Exp.stopped,Start.numClicks,Start.timesOn,Start.timesOff,Start_Segment.started,Play.started,Trial_counter.started,text_6.started,Start_Segment.stopped,Play.numClicks,Play.timesOn,Play.timesOff,Start_Sum_Exp.started,text_4.started,Start_Sum_Exp.stopped,sum_button.numClicks,sum_button.timesOn,sum_button.timesOff,textbox.stopped,summary_done.stopped,Thanks.started,text_7.started,text_7.stopped,Thanks.stopped,participant,session,date,expName,psychopyVersion,frameRate,expStart,
1,Someday_trial_condition.wav,Someday__Someday__Maybe__Unabridged___File_069_of_116_3.wav,It's a gut feeling You can't nickname him He's a real person not a joke person You don't have to tell me Only a real person would try to shake hands with my best friend's foot Jane you're not explaining it right It was very romantic And thankfully our steaming bowl of bright yellow melted cheese with flecks of green chilies arrives Listen she says dipping a chip into the creamy depths You're the one with the brand new personality I'm still the same old Jane,"What does the narrator have, according to Jane?",A) A new recipe for dipping sauce,B) A new personality,C) A new restaurant suggestion,D) A new pair of shoes,B) A new personality,yes,30,0,0,0,0,0,0,0,0,0,0,0,0,,,,,,,,,,,,,402.842936458,,0.008974499999993668,0.01795270799999571,326.851658542,326.851671042,342.48739091699997,342.497289167,342.514067167,342.514067167,342.514067167,346.56825675,1,[4.0615119170000185],[4.061517750000007],346.568715875,346.61743625,346.612788625,376.631921083,376.602799333,376.624000125,376.833229,376.833229,390.643226083,400.464283417,9.933333333333334,13.992582249999998,1,[9.831594333999988],[9.831597584000008],400.466595167,400.471888917,402.803855917,1,[2.3366159170000174],[2.336619125000027],402.804550875,402.842936458,402.842936458,432.804457708,Jane and another person are talking about a date she had with someone. They are then dissucssing shaking his foot and a steaming bowl of pasta or cheese,0,,,,,,,,,,,,,,,,,,,,,,,,,,,,,,,,,,,,,,,,,,,,p_12,001,2024-05-13_11h30.35.672,speech_rate,2023.2.3,None,2024-05-13 11h30.51.797545 -0700,
1,Someday_trial_condition.wav,Someday__Someday__Maybe__Unabridged___File_069_of_116_3.wav,It's a gut feeling You can't nickname him He's a real person not a joke person You don't have to tell me Only a real person would try to shake hands with my best friend's foot Jane you're not explaining it right It was very romantic And thankfully our steaming bowl of bright yellow melted cheese with flecks of green chilies arrives Listen she says dipping a chip into the creamy depths You're the one with the brand new personality I'm still the same old Jane,"What does the narrator have, according to Jane?",A) A new recipe for dipping sauce,B) A new personality,C) A new restaurant suggestion,D) A new pair of shoes,B) A new personality,yes,30,0,0,0,0,0,0,0,0,,,,,,,,,,,,,,,,,,,,,,,,,,,,,,,,,,,,,,,,,,,,,,,,,,,,,,,,,,,,,,,,,,,,,,,,,,,,,,,,,,,,,,,,,,,,,,,,,,,,,,p_12,001,2024-05-13_11h30.35.672,speech_rate,2023.2.3,None,2024-05-13 11h30.51.797545 -0700,
1,Someday_trial_condition.wav,Someday__Someday__Maybe__Unabridged___File_069_of_116_3.wav,It's a gut feeling You can't nickname him He's a real person not a joke person You don't have to tell me Only a real person would try to shake hands with my best friend's foot Jane you're not explaining it right It was very romantic And thankfully our steaming bowl of bright yellow melted cheese with flecks of green chilies arrives Listen she says dipping a chip into the creamy depths You're the one with the brand new personality I'm still the same old Jane,"What does the narrator have, according to Jane?",A) A new recipe for dipping sauce,B) A new personality,C) A new restaurant suggestion,D) A new pair of shoes,B) A new personality,yes,30,0,0,0,0,,,,,,,,,,,,,,,,,,,,,,,,,,,,,,,,,,,,,,,,,,,,,,,,,,,,,,,,,,,,,,,,,432.804809792,437.52949616700005,0,,,1,4.704321499999992,4.704324375000056,0,,,0,,,,,,,,,,,,,,,,,,,,,,,,,,,,,,p_12,001,2024-05-13_11h30.35.672,speech_rate,2023.2.3,None,2024-05-13 11h30.51.797545 -0700,
2,Someday_trial_condition-5x.wav,Someday__Someday__Maybe__Unabridged___File_103_of_116_1.wav,Isn't halfway where two people usually meet Well in general maybe But tonight this is sort of a big deal for me It's my night I'm not sure you you don't think I get it Well no I mean how could you I'm having trouble making sense of this conversation James is speaking with authority but there's something wrong Something feels so wrong somehow I don't care about waving and smiling and having my picture taken with him,"How does James speak, according to the narrator?",A) With compassion,B) With grief,C) With hesitation,D) With authority,D) With authority,yes,6.2,0,1,1,1,0,0,0,0,0,0,0,0,,,,,,,,,,,,,458.141060833,,,,,,,437.53017224999996,437.55419770799995,437.55419770799995,437.55419770799995,443.189539042,1,[5.656094250000024],[5.656097416999955],443.18975920799994,443.20541149966664,443.203397,449.40908420799997,449.39031716700003,449.40155533300003,449.661922292,449.661922292,453.490248833,454.39470879199996,3.0083333333333333,4.06382316700001,1,[0.9138888339999767],[0.9138944170000514],454.395213583,454.40530054199996,458.127073625,1,[3.7311611249999714],[3.7311814579999236],458.12795325,458.141060833,458.141060833,482.87372670800005,there was some explaination of something,1,[24.741650958999912],[24.74165462499991],,,,,,,,,,,,,,,,,,,,,,,,,,,,,,,,,,,,,,,,,,p_12,001,2024-05-13_11h30.35.672,speech_rate,2023.2.3,None,2024-05-13 11h30.51.797545 -0700,
2,Someday_trial_condition-5x.wav,Someday__Someday__Maybe__Unabridged___File_103_of_116_1.wav,Isn't halfway where two people usually meet Well in general maybe But tonight this is sort of a big deal for me It's my night I'm not sure you you don't think I get it Well no I mean how could you I'm having trouble making sense of this conversation James is speaking with authority but there's something wrong Something feels so wrong somehow I don't care about waving and smiling and having my picture taken with him,"How does James speak, according to the narrator?",A) With compassion,B) With grief,C) With hesitation,D) With authority,D) With authority,yes,6.2,0,1,1,1,0,0,0,0,,,,,,,,,,,,,,,,,,,,,,,,,,,,,,,,,,,,,,,,,,,,,,,,,,,,,,,,,,,,,,,,,,,,,,,,,,,,,,,,,,,,,,,,,,,,,,,,,,,,,,p_12,001,2024-05-13_11h30.35.672,speech_rate,2023.2.3,None,2024-05-13 11h30.51.797545 -0700,
2,Someday_trial_condition-5x.wav,Someday__Someday__Maybe__Unabridged___File_103_of_116_1.wav,Isn't halfway where two people usually meet Well in general maybe But tonight this is sort of a big deal for me It's my night I'm not sure you you don't think I get it Well no I mean how could you I'm having trouble making sense of this conversation James is speaking with authority but there's something wrong Something feels so wrong somehow I don't care about waving and smiling and having my picture taken with him,"How does James speak, according to the narrator?",A) With compassion,B) With grief,C) With hesitation,D) With authority,D) With authority,yes,6.2,0,1,1,1,,,,,,,,,,,,,,,,,,,,,,,,,,,,,,,,,,,,,,,,,,,,,,,,,,,,,,,,,,,,,,,,,482.87413575000005,490.70874304200004,1,7.823613708999915,7.823617208999963,0,,,0,,,0,,,,,,,,,,,,,,,,,,,,,,,,,,,,,,p_12,001,2024-05-13_11h30.35.672,speech_rate,2023.2.3,None,2024-05-13 11h30.51.797545 -0700,
,Someday_114_condition-2x.wav,Someday__Someday__Maybe__Unabridged___File_051_of_116_0.wav,You know in general for show business I think that's why I'm not getting any calls from the agency What do you think is the right way to look You know more like these girls on still nursing I gesture toward the television where a buxom blonde in a short skirt and open doctor's coat is struggling to reattach the IV of an elderly male patient by straddling his hospital bed accidentally smothering him with her cleavage The studio audience screams with laughter,What TV show does the narrator reference in their conversation about appearances?,A. A cooking show,B. A crime show,C. A sitcom called "Still Nursing",D. A reality show,C. A sitcom called "Still Nursing",no,14.34,,,,,,,,,,,,,0,0,0,0,,,,,,,,,527.184245542,,,,,,,,,,,,,,,529.228246208,529.2601819163333,529.250497125,543.584403,543.600842417,543.622501917,543.88014875,543.88014875,545.303840625,546.094889458,10,1.6556884169999648,1,[0.8003549579999572],[0.8003577909998967],,,,,,,,,,,,,,,546.095538292,551.796759208,0,,,0,,,1,5.6903324579999435,5.690339040999902,0,,,490.709191833,490.71553866700003,490.71553866700003,527.127900875,1,[36.41791520900006],[36.41791845900002],527.173427583,527.184245542,527.184245542,527.184245542,529.227718167,1,[2.051070374999995],[2.0510766249999506],,,,,,,,,,,,,p_12,001,2024-05-13_11h30.35.672,speech_rate,2023.2.3,None,2024-05-13 11h30.51.797545 -0700,
,Someday_29_condition.wav,Someday__Someday__Maybe__Unabridged___File_017_of_116_1.wav,You said you're new Who Me Well sort of yes I'm new to class but I've lived in New York for a little while two years over two years I worked for my dad at his school and then I was in a theater company for a long time before that touring and also I've done one commercial and that's it Ugh I'm babbling At least I didn't tell him the company was called Go Kids and we played stupid fairy tale characters and the only places we toured were elementary schools in the Tri State area Oh God what if he asks what company I was in I wish I hadn't mentioned the commercial either,What is the narrator worried about regarding her introduction to the person she meets on the street?,A. Revealing too much about her background,B. Not providing enough information,C. Mentioning the wrong company name,D. Being too concise in her introduction,A. Revealing too much about her background,yes,29.49,,,,,,,,,,,,,0,1,1,1,0,0,0,0,0,0,0,0,588.346591792,,,,,,,,,,,,,,,555.461020708,555.509965708,555.501300875,584.997114208,585.001717042,585.023143833,585.233768542,585.233768542,586.123585083,587.014107542,9.916666666666666,1.0729086249999682,1,[0.8996637919999557],[0.8996667919999481],,,,,,,588.318811667,588.346591792,588.346591792,618.149515458,shes talking about how she is part of a touring theater or show group and it takes place in the tristate area she feels embarrassed about what she said in conversaton with a guy,1,[29.827357667],[29.827366208999933],,,,,,,,,,,,,,,,,,,,,,551.797879375,551.805549333,551.805549333,551.805549333,555.460814625,1,[3.6613127079999686],[3.661316749999969],587.014642042,587.020265792,588.317922208,1,[1.3019656249999798],[1.3019797499999868],,,,,,,p_12,001,2024-05-13_11h30.35.672,speech_rate,2023.2.3,None,2024-05-13 11h30.51.797545 -0700,
,Someday_29_condition.wav,Someday__Someday__Maybe__Unabridged___File_017_of_116_1.wav,You said you're new Who Me Well sort of yes I'm new to class but I've lived in New York for a little while two years over two years I worked for my dad at his school and then I was in a theater company for a long time before that touring and also I've done one commercial and that's it Ugh I'm babbling At least I didn't tell him the company was called Go Kids and we played stupid fairy tale characters and the only places we toured were elementary schools in the Tri State area Oh God what if he asks what company I was in I wish I hadn't mentioned the commercial either,What is the narrator worried about regarding her introduction to the person she meets on the street?,A. Revealing too much about her background,B. Not providing enough information,C. Mentioning the wrong company name,D. Being too concise in her introduction,A. Revealing too much about her background,yes,29.49,,,,,,,,,,,,,0,1,1,1,0,0,0,0,,,,,,,,,,,,,,,,,,,,,,,,,,,,,,,,,,,,,,,,,,,,,,,,,,,,,,,,,,,,,,,,,,,,,,,,,,,,,,,,,,,,,,,,,,p_12,001,2024-05-13_11h30.35.672,speech_rate,2023.2.3,None,2024-05-13 11h30.51.797545 -0700,
,Someday_29_condition.wav,Someday__Someday__Maybe__Unabridged___File_017_of_116_1.wav,You said you're new Who Me Well sort of yes I'm new to class but I've lived in New York for a little while two years over two years I worked for my dad at his school and then I was in a theater company for a long time before that touring and also I've done one commercial and that's it Ugh I'm babbling At least I didn't tell him the company was called Go Kids and we played stupid fairy tale characters and the only places we toured were elementary schools in the Tri State area Oh God what if he asks what company I was in I wish I hadn't mentioned the commercial either,What is the narrator worried about regarding her introduction to the person she meets on the street?,A. Revealing too much about her background,B. Not providing enough information,C. Mentioning the wrong company name,D. Being too concise in her introduction,A. Revealing too much about her background,yes,29.49,,,,,,,,,,,,,0,1,1,1,,,,,,,,,,,,,,,,,,,,,,,,,,,,,,,,,,,,,,,,,,,,,,,,,,,,,618.150049125,618.216491708,0,,,1,0.05363004200000887,0.0536335000000463,0,,,0,,,,,,,,,,,,,,,,,,,,,,,,,,,,,,p_12,001,2024-05-13_11h30.35.672,speech_rate,2023.2.3,None,2024-05-13 11h30.51.797545 -0700,
,Someday_89_condition-4x.wav,Someday__Someday__Maybe__Unabridged___File_039_of_116_2.wav,Excuse me can you tell me what day of the week it is they'll say and laugh I'm leaning awkwardly against the wall near the door not sure what to do while I wait Maybe I should sit Plenty of people use sitting as a way to pass the time I look at the giant table and multitude of chairs Unless a bunch of people are going to join us this seems a strange room to choose for a meeting of two Yes I think I'll sit But I'm not sure which spot to choose I'm not totally sure I even want to sit yet,Why does the narrator feel uncertain about sitting in the room?,A. She is worried about her outfit,B. She doesn't know which chair to choose,C. She prefers to stand,D. She has somewhere else to be,B. She doesn't know which chair to choose,no,7.185,,,,,,,,,,,,,0,2,2,2,,,,,,,,,618.224680625,,,,,,,,,,,,,,,621.086145833,621.0988879996667,621.099332917,628.304430625,628.28565975,628.296863208,628.55880875,628.55880875,630.486870542,631.312952542,4.008333333333333,2.1663733340000135,1,[0.8347730420000516],[0.8347759170000018],,,,,,,,,,,,,,,631.313427917,637.48591525,1,6.162398415999974,6.162406250000004,0,,,0,,,0,,,,,,,,,,618.217078708,618.224680625,618.224680625,618.224680625,621.085873292,1,[2.867026583999973],[2.86704358399993],,,,,,,,,,,,,p_12,001,2024-05-13_11h30.35.672,speech_rate,2023.2.3,None,2024-05-13 11h30.51.797545 -0700,
,Someday_71_condition-2x.wav,Someday__Someday__Maybe__Unabridged___File_033_of_116_5.wav,Mavis Alicia Carol I say to myself Mavis Alicia Carol Do you like to do this yourself I look up for my magazine to find Carol waving a strange metal object in front of my face I have no idea what it is or what it might be used for I'm sorry what is that Carol peers over her glasses at me in surprise You've never seen one of these before No But of course you have It's an eyelash curler I'm sure your mother has one,What is the object that the narrator has never seen before?,A. A cushion foundation,B. A colorful eyeliner,C. An eyelash curler,D. A brow gel,C. An eyelash curler,yes,14.93996875,,,,,,,,,,,,,0,3,3,3,0,0,0,0,0,0,0,0,658.26583225,,,,,,,,,,,,,,,640.225696083,640.2416109996666,640.245955333,655.1845525,655.184966875,655.195049292,655.403676292,655.403676292,656.677495958,657.3463161669999,9.866666666666667,1.4546930000000202,1,[0.6780464580000398],[0.6780503329999874],,,,,,,658.254252833,658.26583225,658.26583225,688.252973208,shes talking abuot an eyelash curler the two women are talking about it and are saying that they know or dont know what it is ,0,,,,,,,,,,,,,,,,,,,,,,,,637.486483958,637.49924975,637.49924975,637.49924975,640.225489875,1,[2.7385201669999333],[2.7385233749999998],657.346807542,657.3519435,658.253476833,1,[0.9060557909999716],[0.906061750000049],688.272678167,688.272678167,,,,,p_12,001,2024-05-13_11h30.35.672,speech_rate,2023.2.3,None,2024-05-13 11h30.51.797545 -0700,
,Someday_71_condition-2x.wav,Someday__Someday__Maybe__Unabridged___File_033_of_116_5.wav,Mavis Alicia Carol I say to myself Mavis Alicia Carol Do you like to do this yourself I look up for my magazine to find Carol waving a strange metal object in front of my face I have no idea what it is or what it might be used for I'm sorry what is that Carol peers over her glasses at me in surprise You've never seen one of these before No But of course you have It's an eyelash curler I'm sure your mother has one,What is the object that the narrator has never seen before?,A. A cushion foundation,B. A colorful eyeliner,C. An eyelash curler,D. A brow gel,C. An eyelash curler,yes,14.93996875,,,,,,,,,,,,,0,3,3,3,0,0,0,0,,,,,,,,,,,,,,,,,,,,,,,,,,,,,,,,,,,,,,,,,,,,,,,,,,,,,,,,,,,,,,,,,,,,,,,,,,,,,,,,,,,,,,,,,,p_12,001,2024-05-13_11h30.35.672,speech_rate,2023.2.3,None,2024-05-13 11h30.51.797545 -0700,
,Someday_71_condition-2x.wav,Someday__Someday__Maybe__Unabridged___File_033_of_116_5.wav,Mavis Alicia Carol I say to myself Mavis Alicia Carol Do you like to do this yourself I look up for my magazine to find Carol waving a strange metal object in front of my face I have no idea what it is or what it might be used for I'm sorry what is that Carol peers over her glasses at me in surprise You've never seen one of these before No But of course you have It's an eyelash curler I'm sure your mother has one,What is the object that the narrator has never seen before?,A. A cushion foundation,B. A colorful eyeliner,C. An eyelash curler,D. A brow gel,C. An eyelash curler,yes,14.93996875,,,,,,,,,,,,,0,3,3,3,,,,,,,,,,,,,,,,,,,,,,,,,,,,,,,,,,,,,,,,,,,,,,,,,,,,,688.25340275,691.269271333,0,,,0,,,1,3.0058959999998933,3.005898874999957,0,,,,,,,,,,,,,,,,,,,,,,,,,,,,,,p_12,001,2024-05-13_11h30.35.672,speech_rate,2023.2.3,None,2024-05-13 11h30.51.797545 -0700,
,Someday_87_condition-3x.wav,Someday__Someday__Maybe__Unabridged___File_039_of_116_0.wav,The reception area is a soothing soft grey Everything is plush and velvet The carpet looks like shiny grey silk and the sofa is a silvery suede that appears freshly brushed as though no one has ever sat on it There's a long reception desk behind which sit two of the most beautiful people I have ever seen also swathed in grey The perfect specimen male is reading a script and the perfect specimen female is on a headset talking to someone in a British accent,How does the narrator describe the reception area of Absolute Artists?,A. It's brightly colored,B. It's cold and uninviting,C. It's plush and soothing,D. It's chaotic and messy,C. It's plush and soothing,yes,10.68,,,,,,,,,,,,,0,4,4,4,0,0,0,0,0,0,0,0,707.897485042,,,,,,,,,,,,,,,692.8769,692.8925471666666,692.892858792,703.6041736669999,703.574544,703.596012458,703.865813958,703.865813958,705.971370083,706.832175083,8.933333333333334,2.3502828750000617,1,[0.8706565830000272],[0.8706593330000487],,,,,,,707.886728042,707.897485042,707.897485042,736.421961417,there is a descropton of a waiting room with velvet and other details about who is in the room and the narrator is articulating about how they feel about receptionist,1,[28.53213133400004],[28.532135834000087],,,,,,,,,,,,,,,,,,,,,,691.269731542,691.276142875,691.276142875,691.276142875,692.876672833,1,[1.6052535000000034],[1.6052568329999986],706.832682125,706.837541417,707.886165708,1,[1.0530538329999217],[1.0530569579999565],,,,,,,p_12,001,2024-05-13_11h30.35.672,speech_rate,2023.2.3,None,2024-05-13 11h30.51.797545 -0700,
,Someday_87_condition-3x.wav,Someday__Someday__Maybe__Unabridged___File_039_of_116_0.wav,The reception area is a soothing soft grey Everything is plush and velvet The carpet looks like shiny grey silk and the sofa is a silvery suede that appears freshly brushed as though no one has ever sat on it There's a long reception desk behind which sit two of the most beautiful people I have ever seen also swathed in grey The perfect specimen male is reading a script and the perfect specimen female is on a headset talking to someone in a British accent,How does the narrator describe the reception area of Absolute Artists?,A. It's brightly colored,B. It's cold and uninviting,C. It's plush and soothing,D. It's chaotic and messy,C. It's plush and soothing,yes,10.68,,,,,,,,,,,,,0,4,4,4,0,0,0,0,,,,,,,,,,,,,,,,,,,,,,,,,,,,,,,,,,,,,,,,,,,,,,,,,,,,,,,,,,,,,,,,,,,,,,,,,,,,,,,,,,,,,,,,,,p_12,001,2024-05-13_11h30.35.672,speech_rate,2023.2.3,None,2024-05-13 11h30.51.797545 -0700,
,Someday_87_condition-3x.wav,Someday__Someday__Maybe__Unabridged___File_039_of_116_0.wav,The reception area is a soothing soft grey Everything is plush and velvet The carpet looks like shiny grey silk and the sofa is a silvery suede that appears freshly brushed as though no one has ever sat on it There's a long reception desk behind which sit two of the most beautiful people I have ever seen also swathed in grey The perfect specimen male is reading a script and the perfect specimen female is on a headset talking to someone in a British accent,How does the narrator describe the reception area of Absolute Artists?,A. It's brightly colored,B. It's cold and uninviting,C. It's plush and soothing,D. It's chaotic and messy,C. It's plush and soothing,yes,10.68,,,,,,,,,,,,,0,4,4,4,,,,,,,,,,,,,,,,,,,,,,,,,,,,,,,,,,,,,,,,,,,,,,,,,,,,,736.422462208,744.959286917,0,,,0,,,1,8.52647316699995,8.526476666999997,0,,,,,,,,,,,,,,,,,,,,,,,,,,,,,,p_12,001,2024-05-13_11h30.35.672,speech_rate,2023.2.3,None,2024-05-13 11h30.51.797545 -0700,
,Someday_40_condition.wav,Someday__Someday__Maybe__Unabridged___File_021_of_116_3.wav,Aren't you cold It's James Franklin the last person I want to see right now Nothing could make me feel worse after what happened tonight than to be reminded that a guy I gushed all over got my phone number but never called me Even after I learned that he and Penelope were some sort of couple I held my breath every day for the last two weeks while waiting for the machine to rewind hoping he'd left a message but he never did James smiles at me and stamps his feet rubbing his hands together and blowing on them,Why does the narrator feel embarrassed to see James Franklin?,A. Because he got her phone number but never called,B. Because he is dating Penelope,C. Because he reminds her of a bad experience,D. Because he is unfriendly,A. Because he got her phone number but never called,no,28.23996875,,,,,,,,,,,,,0,5,5,5,,,,,,,,,744.972303917,,,,,,,,,,,,,,,746.042529375,746.0727892083333,746.073587083,774.307858292,774.318905083,774.340432083,774.599848042,774.599848042,776.70676675,777.575167375,10,2.3392363750000413,1,[0.8804691670000011],[0.8804727499999672],,,,,,,,,,,,,,,777.575633833,780.84044925,1,3.254786416999991,3.254789208000034,0,,,0,,,0,,,,,,,,,,744.959835,744.972303917,744.972303917,744.972303917,746.041767792,1,[1.0787055829999872],[1.0787164580000308],,,,,,,,,,,,,p_12,001,2024-05-13_11h30.35.672,speech_rate,2023.2.3,None,2024-05-13 11h30.51.797545 -0700,
,Someday_21_condition-3x.wav,Someday__Someday__Maybe__Unabridged___File_013_of_116_0.wav,But I guess he was like she already has an agent at Absolute and she's got two movies in the can so like you know fine just one more beanpole to deal with This is the kind of confidence you're supposed to have as an actress I think I mean I would personally never announce that I had an agent at Absolute Artists the best agency in town or talk about movies I'd done or refer to myself as a beanpole especially loudly and in a room full of people But then again in my case none of those things are TRUE,What is the narrator's stance on sharing personal accomplishments in public?,A. The narrator believes in confidently announcing her achievements,B. The narrator prefers to keep her agent and acting achievements private,C. The narrator doesn't have a strong opinion on this,D. The narrator feels it's necessary to talk loudly about her successes to gain recognition,D. The narrator feels it's necessary to talk loudly about her successes to gain recognition,yes,11.04375,,,,,,,,,,,,,0,6,6,6,0,0,0,0,0,0,0,0,797.089948083,,,,,,,,,,,,,,,781.559216125,781.5748266246667,781.575332,792.6254464579999,792.627176833,792.638410625,792.844975125,792.844975125,794.9090325,795.747598917,9.508333333333333,2.245792042000062,1,[0.8479503329999716],[0.8479531660000248],,,,,,,797.07871025,797.089948083,797.089948083,827.078886667,narrator is talking about her insecurities in acting shes saying how shes never been like others but feels that there is som etruth i,0,,,,,,,,,,,,,,,,,,,,,,,,780.840897,780.847504708,780.847504708,780.847504708,781.558984625,1,[0.7162294170000223],[0.7162335840000651],795.7481435,795.757874917,797.077959125,1,[1.3291179579999834],[1.3291232080000555],,,,,,,p_12,001,2024-05-13_11h30.35.672,speech_rate,2023.2.3,None,2024-05-13 11h30.51.797545 -0700,
,Someday_21_condition-3x.wav,Someday__Someday__Maybe__Unabridged___File_013_of_116_0.wav,But I guess he was like she already has an agent at Absolute and she's got two movies in the can so like you know fine just one more beanpole to deal with This is the kind of confidence you're supposed to have as an actress I think I mean I would personally never announce that I had an agent at Absolute Artists the best agency in town or talk about movies I'd done or refer to myself as a beanpole especially loudly and in a room full of people But then again in my case none of those things are TRUE,What is the narrator's stance on sharing personal accomplishments in public?,A. The narrator believes in confidently announcing her achievements,B. The narrator prefers to keep her agent and acting achievements private,C. The narrator doesn't have a strong opinion on this,D. The narrator feels it's necessary to talk loudly about her successes to gain recognition,D. The narrator feels it's necessary to talk loudly about her successes to gain recognition,yes,11.04375,,,,,,,,,,,,,0,6,6,6,0,0,0,0,,,,,,,,,,,,,,,,,,,,,,,,,,,,,,,,,,,,,,,,,,,,,,,,,,,,,,,,,,,,,,,,,,,,,,,,,,,,,,,,,,,,,,,,,,p_12,001,2024-05-13_11h30.35.672,speech_rate,2023.2.3,None,2024-05-13 11h30.51.797545 -0700,
,Someday_21_condition-3x.wav,Someday__Someday__Maybe__Unabridged___File_013_of_116_0.wav,But I guess he was like she already has an agent at Absolute and she's got two movies in the can so like you know fine just one more beanpole to deal with This is the kind of confidence you're supposed to have as an actress I think I mean I would personally never announce that I had an agent at Absolute Artists the best agency in town or talk about movies I'd done or refer to myself as a beanpole especially loudly and in a room full of people But then again in my case none of those things are TRUE,What is the narrator's stance on sharing personal accomplishments in public?,A. The narrator believes in confidently announcing her achievements,B. The narrator prefers to keep her agent and acting achievements private,C. The narrator doesn't have a strong opinion on this,D. The narrator feels it's necessary to talk loudly about her successes to gain recognition,D. The narrator feels it's necessary to talk loudly about her successes to gain recognition,yes,11.04375,,,,,,,,,,,,,0,6,6,6,,,,,,,,,,,,,,,,,,,,,,,,,,,,,,,,,,,,,,,,,,,,,,,,,,,,,827.079252292,839.04701375,0,,,1,11.954490792000001,11.9544975419999,0,,,0,,,,,,,,,,,,,,,,,,,,,,,,,,,,,,p_12,001,2024-05-13_11h30.35.672,speech_rate,2023.2.3,None,2024-05-13 11h30.51.797545 -0700,
,Someday_100_condition-3x.wav,Someday__Someday__Maybe__Unabridged___File_044_of_116_2.wav,Who else laughs funny It seems all I can think of are people who have completely normal ways of laughing or Fran Drescher from The Nanny but that's her laugh It's only funny the way she does it Or is that what they want Someone who can copy someone else's already funny laugh rather than trying to invent a better one Now all I can think of is the laugh from The Nanny Maybe that's what I'll do then I can't think of anything else I'll just try to do a really good version of the laugh from The Nanny The girls are coming and going out of the audition room with incredible speed,What famous laugh does the narrator consider using for the audition?,A. A laugh from a family member,B. A laugh from a friend,C. The laugh from The Nanny,D. A unique and invented laugh,C. The laugh from The Nanny,yes,11.07375,,,,,,,,,,,,,0,7,7,7,0,0,0,0,0,0,0,0,855.22676,,,,,,,,,,,,,,,840.89896075,840.9114646246667,840.914792708,851.995551167,851.997627375,852.01891625,852.2931955,852.2931955,853.6336805,854.367175792,9.541666666666666,1.5906161249999968,1,[0.7423854170000368],[0.7423881670000583],,,,,,,855.213868,855.22676,855.22676,881.030115958,narrator is talking about the laughing and loudness of the laughing as well as the speed shes trying to laugh like nanny ,1,[25.811362790999965],[25.811366125000063],,,,,,,,,,,,,,,,,,,,,,839.047587375,839.060944208,839.060944208,839.060944208,840.898689708,1,[1.8483955420000484],[1.848411542000008],854.367716375,854.377927458,855.213071042,1,[0.8448770410000179],[0.8448803329999919],,,,,,,p_12,001,2024-05-13_11h30.35.672,speech_rate,2023.2.3,None,2024-05-13 11h30.51.797545 -0700,
,Someday_100_condition-3x.wav,Someday__Someday__Maybe__Unabridged___File_044_of_116_2.wav,Who else laughs funny It seems all I can think of are people who have completely normal ways of laughing or Fran Drescher from The Nanny but that's her laugh It's only funny the way she does it Or is that what they want Someone who can copy someone else's already funny laugh rather than trying to invent a better one Now all I can think of is the laugh from The Nanny Maybe that's what I'll do then I can't think of anything else I'll just try to do a really good version of the laugh from The Nanny The girls are coming and going out of the audition room with incredible speed,What famous laugh does the narrator consider using for the audition?,A. A laugh from a family member,B. A laugh from a friend,C. The laugh from The Nanny,D. A unique and invented laugh,C. The laugh from The Nanny,yes,11.07375,,,,,,,,,,,,,0,7,7,7,0,0,0,0,,,,,,,,,,,,,,,,,,,,,,,,,,,,,,,,,,,,,,,,,,,,,,,,,,,,,,,,,,,,,,,,,,,,,,,,,,,,,,,,,,,,,,,,,,p_12,001,2024-05-13_11h30.35.672,speech_rate,2023.2.3,None,2024-05-13 11h30.51.797545 -0700,
,Someday_100_condition-3x.wav,Someday__Someday__Maybe__Unabridged___File_044_of_116_2.wav,Who else laughs funny It seems all I can think of are people who have completely normal ways of laughing or Fran Drescher from The Nanny but that's her laugh It's only funny the way she does it Or is that what they want Someone who can copy someone else's already funny laugh rather than trying to invent a better one Now all I can think of is the laugh from The Nanny Maybe that's what I'll do then I can't think of anything else I'll just try to do a really good version of the laugh from The Nanny The girls are coming and going out of the audition room with incredible speed,What famous laugh does the narrator consider using for the audition?,A. A laugh from a family member,B. A laugh from a friend,C. The laugh from The Nanny,D. A unique and invented laugh,C. The laugh from The Nanny,yes,11.07375,,,,,,,,,,,,,0,7,7,7,,,,,,,,,,,,,,,,,,,,,,,,,,,,,,,,,,,,,,,,,,,,,,,,,,,,,881.030631583,884.931562833,0,,,0,,,1,3.8899615829999448,3.889965874999916,0,,,,,,,,,,,,,,,,,,,,,,,,,,,,,,p_12,001,2024-05-13_11h30.35.672,speech_rate,2023.2.3,None,2024-05-13 11h30.51.797545 -0700,
,Someday_58_condition.wav,Someday__Someday__Maybe__Unabridged___File_028_of_116_0.wav,Her profile is sharp her whole body a series of angles that have somehow Improbably folded themselves on their hinges into the soft chair There's something so regal and linear about her I can't imagine her ever collapsing into giggles or crying hysterically She's taking her time to consider what to say next in a way that suggests she's used to people waiting for her I wonder what that's like to never worry about filling the silence Her eyes eventually float back to me,How does the narrator describe the woman's profile?,A. Sharp,B. Round,C. Regal,D. Hysterical,A. Sharp,yes,29.23003125,,,,,,,,,,,,,0,8,8,8,0,0,0,0,0,0,0,0,918.165782833,,,,,,,,,,,,,,,885.781171542,885.8138083333333,885.811906625,915.039066208,915.049343292,915.070626375,915.3263493329999,915.3263493329999,916.398135875,917.232855417,9.95,1.300100708000059,1,[0.8473059579999926],[0.847308749999911],,,,,,,918.154157083,918.165782833,918.165782833,946.4187415829999,the narratro discribes a woman who is stoic and still shes got sharp angles to her posture and is regal as she turns to look ath the narrator ,1,[28.261357165999925],[28.261360665999973],,,,,,,,,,,,,,,,,,,,,,884.932219625,884.9380203329999,884.9380203329999,884.9380203329999,885.78097875,1,[0.8482806250000294],[0.8482867090000354],917.233348042,917.2382115,918.153394875,1,[0.9191267080000216],[0.9191337080000039],,,,,,,p_12,001,2024-05-13_11h30.35.672,speech_rate,2023.2.3,None,2024-05-13 11h30.51.797545 -0700,
,Someday_58_condition.wav,Someday__Someday__Maybe__Unabridged___File_028_of_116_0.wav,Her profile is sharp her whole body a series of angles that have somehow Improbably folded themselves on their hinges into the soft chair There's something so regal and linear about her I can't imagine her ever collapsing into giggles or crying hysterically She's taking her time to consider what to say next in a way that suggests she's used to people waiting for her I wonder what that's like to never worry about filling the silence Her eyes eventually float back to me,How does the narrator describe the woman's profile?,A. Sharp,B. Round,C. Regal,D. Hysterical,A. Sharp,yes,29.23003125,,,,,,,,,,,,,0,8,8,8,0,0,0,0,,,,,,,,,,,,,,,,,,,,,,,,,,,,,,,,,,,,,,,,,,,,,,,,,,,,,,,,,,,,,,,,,,,,,,,,,,,,,,,,,,,,,,,,,,p_12,001,2024-05-13_11h30.35.672,speech_rate,2023.2.3,None,2024-05-13 11h30.51.797545 -0700,
,Someday_58_condition.wav,Someday__Someday__Maybe__Unabridged___File_028_of_116_0.wav,Her profile is sharp her whole body a series of angles that have somehow Improbably folded themselves on their hinges into the soft chair There's something so regal and linear about her I can't imagine her ever collapsing into giggles or crying hysterically She's taking her time to consider what to say next in a way that suggests she's used to people waiting for her I wonder what that's like to never worry about filling the silence Her eyes eventually float back to me,How does the narrator describe the woman's profile?,A. Sharp,B. Round,C. Regal,D. Hysterical,A. Sharp,yes,29.23003125,,,,,,,,,,,,,0,8,8,8,,,,,,,,,,,,,,,,,,,,,,,,,,,,,,,,,,,,,,,,,,,,,,,,,,,,,946.4191909169999,951.128333875,0,,,0,,,1,4.701247708999972,4.701251459000105,0,,,,,,,,,,,,,,,,,,,,,,,,,,,,,,p_12,001,2024-05-13_11h30.35.672,speech_rate,2023.2.3,None,2024-05-13 11h30.51.797545 -0700,
,Someday_37_condition-4x.wav,Someday__Someday__Maybe__Unabridged___File_020_of_116_2.wav,If only I hadn't missed the chair if only I made better undergarment choices I Want to ask someone how bad it was exactly But the backstage area is so small that all the students here now are waiting for their turn and too nervous to talk Anyone who could have been watching from the wings is probably downstairs now in the green room smoking cigarettes and talking about themselves As much as I want feedback I don't feel like going down there I can face one person trying in vain to convince me it wasn't so bad but not a sea of pitying faces,What is preventing the narrator from asking someone about their performance?,A. Fear of a large crowd,B. Lack of interest in feedback,C. The small backstage area,D. Smoking cigarettes in the green room,C. The small backstage area,yes,7.1625,,,,,,,,,,,,,0,9,9,9,0,0,0,0,0,0,0,0,964.283253667,,,,,,,,,,,,,,,952.994626083,953.0103348336665,953.008063042,960.1781686669999,960.1793888330001,960.1899242919999,960.4504877080001,960.4504877080001,962.6173745420001,963.413824792,2.8416666666666663,2.3997280409998893,1,[0.8096958340001947],[0.8096999589999996],,,,,,,964.2709172499999,964.283253667,964.283253667,990.203978542,something about faces and the room with people in it the narrator cant accurately see something,1,[25.92884412500007],[25.928847958999995],,,,,,,,,,,,,,,,,,,,,,951.128892208,951.136615417,951.136615417,951.136615417,952.9943976669999,1,[1.8629142920001414],[1.8629178340002],963.4143032919999,963.4193372499999,964.269191417,1,[0.8543899999999667],[0.8543933339999512],,,,,,,p_12,001,2024-05-13_11h30.35.672,speech_rate,2023.2.3,None,2024-05-13 11h30.51.797545 -0700,
,Someday_37_condition-4x.wav,Someday__Someday__Maybe__Unabridged___File_020_of_116_2.wav,If only I hadn't missed the chair if only I made better undergarment choices I Want to ask someone how bad it was exactly But the backstage area is so small that all the students here now are waiting for their turn and too nervous to talk Anyone who could have been watching from the wings is probably downstairs now in the green room smoking cigarettes and talking about themselves As much as I want feedback I don't feel like going down there I can face one person trying in vain to convince me it wasn't so bad but not a sea of pitying faces,What is preventing the narrator from asking someone about their performance?,A. Fear of a large crowd,B. Lack of interest in feedback,C. The small backstage area,D. Smoking cigarettes in the green room,C. The small backstage area,yes,7.1625,,,,,,,,,,,,,0,9,9,9,0,0,0,0,,,,,,,,,,,,,,,,,,,,,,,,,,,,,,,,,,,,,,,,,,,,,,,,,,,,,,,,,,,,,,,,,,,,,,,,,,,,,,,,,,,,,,,,,,p_12,001,2024-05-13_11h30.35.672,speech_rate,2023.2.3,None,2024-05-13 11h30.51.797545 -0700,
,Someday_37_condition-4x.wav,Someday__Someday__Maybe__Unabridged___File_020_of_116_2.wav,If only I hadn't missed the chair if only I made better undergarment choices I Want to ask someone how bad it was exactly But the backstage area is so small that all the students here now are waiting for their turn and too nervous to talk Anyone who could have been watching from the wings is probably downstairs now in the green room smoking cigarettes and talking about themselves As much as I want feedback I don't feel like going down there I can face one person trying in vain to convince me it wasn't so bad but not a sea of pitying faces,What is preventing the narrator from asking someone about their performance?,A. Fear of a large crowd,B. Lack of interest in feedback,C. The small backstage area,D. Smoking cigarettes in the green room,C. The small backstage area,yes,7.1625,,,,,,,,,,,,,0,9,9,9,,,,,,,,,,,,,,,,,,,,,,,,,,,,,,,,,,,,,,,,,,,,,,,,,,,,,990.204474417,996.7569297079999,1,6.541412833999857,6.5414161249998415,0,,,0,,,0,,,,,,,,,,,,,,,,,,,,,,,,,,,,,,p_12,001,2024-05-13_11h30.35.672,speech_rate,2023.2.3,None,2024-05-13 11h30.51.797545 -0700,
,Someday_74_condition-3x.wav,Someday__Someday__Maybe__Unabridged___File_035_of_116_2.wav,Barney wears a light blue sport coat and has thick white hair cropped very close to his head The whole place smells like cigar smoke and dust but there's something comforting about it I'm afraid my nervousness is obvious especially when I discover that the only way to sit in the one huge armchair opposite his desk is to sink into it and be swallowed I fight the chair for a minute trying to perch daintily on the edge and then give up and sit back which at least might make me look relaxed Francis Banks Barney Bellows,What is Barney Sparks wearing when the main character meets him?,A. A black tuxedo,B. A light blue sport coat,C. A red sweater,D. A white lab coat,B. A light blue sport coat,yes,11.1525,,,,,,,,,,,,,0,10,10,10,0,0,0,0,0,0,0,0,1014.773070917,,,,,,,,,,,,,,,998.5213839999999,998.5368209586666,998.540468375,1009.688296042,1009.6948668330001,1009.7060535,1009.9646714999999,1009.9646714999999,1011.755482583,1014.02894075,10.0,3.387508707999814,1,[2.283235375000004],[2.2832414169999993],,,,,,,1014.7618406669999,1014.773070917,1014.773070917,1042.156935083,the narrator is waiting i n a chair tot get called on by the man whos going to say her name for something shes trying not to get eaten by the chair,1,[27.39189829199995],[27.391902791999883],,,,,,,,,,,,,,,,,,,,,,996.7574972499999,996.769677125,996.769677125,996.769677125,998.521120333,1,[1.7613208749999103],[1.7613243329999477],1014.029461417,1014.036748792,1014.761178833,1,[0.7312202499999785],[0.7312231669998255],,,,,,,p_12,001,2024-05-13_11h30.35.672,speech_rate,2023.2.3,None,2024-05-13 11h30.51.797545 -0700,
,Someday_74_condition-3x.wav,Someday__Someday__Maybe__Unabridged___File_035_of_116_2.wav,Barney wears a light blue sport coat and has thick white hair cropped very close to his head The whole place smells like cigar smoke and dust but there's something comforting about it I'm afraid my nervousness is obvious especially when I discover that the only way to sit in the one huge armchair opposite his desk is to sink into it and be swallowed I fight the chair for a minute trying to perch daintily on the edge and then give up and sit back which at least might make me look relaxed Francis Banks Barney Bellows,What is Barney Sparks wearing when the main character meets him?,A. A black tuxedo,B. A light blue sport coat,C. A red sweater,D. A white lab coat,B. A light blue sport coat,yes,11.1525,,,,,,,,,,,,,0,10,10,10,0,0,0,0,,,,,,,,,,,,,,,,,,,,,,,,,,,,,,,,,,,,,,,,,,,,,,,,,,,,,,,,,,,,,,,,,,,,,,,,,,,,,,,,,,,,,,,,,,p_12,001,2024-05-13_11h30.35.672,speech_rate,2023.2.3,None,2024-05-13 11h30.51.797545 -0700,
,Someday_74_condition-3x.wav,Someday__Someday__Maybe__Unabridged___File_035_of_116_2.wav,Barney wears a light blue sport coat and has thick white hair cropped very close to his head The whole place smells like cigar smoke and dust but there's something comforting about it I'm afraid my nervousness is obvious especially when I discover that the only way to sit in the one huge armchair opposite his desk is to sink into it and be swallowed I fight the chair for a minute trying to perch daintily on the edge and then give up and sit back which at least might make me look relaxed Francis Banks Barney Bellows,What is Barney Sparks wearing when the main character meets him?,A. A black tuxedo,B. A light blue sport coat,C. A red sweater,D. A white lab coat,B. A light blue sport coat,yes,11.1525,,,,,,,,,,,,,0,10,10,10,,,,,,,,,,,,,,,,,,,,,,,,,,,,,,,,,,,,,,,,,,,,,,,,,,,,,1042.157456917,1052.44079675,1,10.273860624999998,10.273864000000003,0,,,0,,,0,,,,,,,,,,,,,,,,,,,,,,,,,,,,,,p_12,001,2024-05-13_11h30.35.672,speech_rate,2023.2.3,None,2024-05-13 11h30.51.797545 -0700,
,Someday_110_condition.wav,Someday__Someday__Maybe__Unabridged___File_048_of_116_3.wav,But still the dry cleaners own you You're at their mercy Clothes that have to be dry cleaned look down on you Is it the clothes who are to blame or the dry cleaning professionals themselves Chicken or the egg my friend This new dry cleaning conspiracy theory reminds me of your fear of ironing This is nothing like my fear of ironing Although ironing is another secret society that doesn't want you to know what's up Do you know anyone who can tell you why the ironing board is shaped that way How does it help me that it's the size of a surfboard,What is the dry cleaning conspiracy theory being compared to?,A. A fear of ironing,B. The shape of an ironing board,C. A secret society,D. A surfboard,A. A fear of ironing,yes,28.34996875,,,,,,,,,,,,,0,11,11,11,0,0,0,0,0,0,0,0,1086.808325875,,,,,,,,,,,,,,,1054.243167375,1054.2735240003333,1054.272994458,1082.625394708,1082.627975917,1082.64977675,1082.91738925,1082.91738925,1085.242334875,1086.026595292,9.975,2.5684237909999865,1,[0.7932225000001836],[0.7932252919999883],,,,,,,1086.796882458,1086.808325875,1086.808325875,1114.334799542,secret society of ironing board and dry cleaning where the clothes look down on you the narrator is telling someone why they don't like this kind of clothing,1,[27.534375166000018],[27.534378541000024],,,,,,,,,,,,,,,,,,,,,,1052.4413345,1052.456272125,1052.456272125,1052.456272125,1054.242897875,1,[1.7994129999999586],[1.799417584000139],1086.027127833,1086.032118292,1086.796113292,1,[0.7681408749999719],[0.7681587089998629],,,,,,,p_12,001,2024-05-13_11h30.35.672,speech_rate,2023.2.3,None,2024-05-13 11h30.51.797545 -0700,
,Someday_110_condition.wav,Someday__Someday__Maybe__Unabridged___File_048_of_116_3.wav,But still the dry cleaners own you You're at their mercy Clothes that have to be dry cleaned look down on you Is it the clothes who are to blame or the dry cleaning professionals themselves Chicken or the egg my friend This new dry cleaning conspiracy theory reminds me of your fear of ironing This is nothing like my fear of ironing Although ironing is another secret society that doesn't want you to know what's up Do you know anyone who can tell you why the ironing board is shaped that way How does it help me that it's the size of a surfboard,What is the dry cleaning conspiracy theory being compared to?,A. A fear of ironing,B. The shape of an ironing board,C. A secret society,D. A surfboard,A. A fear of ironing,yes,28.34996875,,,,,,,,,,,,,0,11,11,11,0,0,0,0,,,,,,,,,,,,,,,,,,,,,,,,,,,,,,,,,,,,,,,,,,,,,,,,,,,,,,,,,,,,,,,,,,,,,,,,,,,,,,,,,,,,,,,,,,p_12,001,2024-05-13_11h30.35.672,speech_rate,2023.2.3,None,2024-05-13 11h30.51.797545 -0700,
,Someday_110_condition.wav,Someday__Someday__Maybe__Unabridged___File_048_of_116_3.wav,But still the dry cleaners own you You're at their mercy Clothes that have to be dry cleaned look down on you Is it the clothes who are to blame or the dry cleaning professionals themselves Chicken or the egg my friend This new dry cleaning conspiracy theory reminds me of your fear of ironing This is nothing like my fear of ironing Although ironing is another secret society that doesn't want you to know what's up Do you know anyone who can tell you why the ironing board is shaped that way How does it help me that it's the size of a surfboard,What is the dry cleaning conspiracy theory being compared to?,A. A fear of ironing,B. The shape of an ironing board,C. A secret society,D. A surfboard,A. A fear of ironing,yes,28.34996875,,,,,,,,,,,,,0,11,11,11,,,,,,,,,,,,,,,,,,,,,,,,,,,,,,,,,,,,,,,,,,,,,,,,,,,,,1114.335235875,1124.763122625,0,,,0,,,0,,,1,10.41855600000008,10.418559666999954,,,,,,,,,,,,,,,,,,,,,,,,,,,,p_12,001,2024-05-13_11h30.35.672,speech_rate,2023.2.3,None,2024-05-13 11h30.51.797545 -0700,
,Someday_104_condition.wav,Someday__Someday__Maybe__Unabridged___File_047_of_116_0.wav,Do you feel good about it I'm not sure I think so The audience laughed Lots of people said I did well But I have no idea who any of them were or if they were the ones I needed to impress But the laughing thing was getting such a positive reaction from the audience The writer decided to give me a line Jane's eyes go wide No way I know I got really excited too Which is so dumb when you think about it I've done whole plays in summer stock and all those scenes in class,What positive outcome does the narrator mention regarding her audition?,A. The writer decided to give her a line,B. Jane was impressed with her performance,C. She received a standing ovation,D. She secured a lead role in the play,A. The writer decided to give her a line,yes,29.18,,,,,,,,,,,,,0,12,12,12,0,0,0,0,0,0,0,0,1160.908933583,,,,,,,,,,,,,,,1125.711953042,1125.7438309583333,1125.744050708,1154.919441458,1154.931609625,1154.942639083,1155.203011083,1155.203011083,1159.167526,1160.075250625,10,4.2007170830002,1,[0.9167479170000661],[0.9167507920001299],,,,,,,1160.897767667,1160.908933583,1160.908933583,1187.149078458,the narrator is telling someone aobut their experience with a particular perfomrance and how the audience was reacting to her in contrast to other plays shes performed,1,[26.248031916000173],[26.24803570800009],,,,,,,,,,,,,,,,,,,,,,1124.76369525,1124.77703325,1124.77703325,1124.77703325,1125.711731,1,[0.9460711670001274],[0.9460744580001119],1160.075764625,1160.08083075,1160.896971333,1,[0.8205777919999946],[0.8205810829999791],,,,,,,p_12,001,2024-05-13_11h30.35.672,speech_rate,2023.2.3,None,2024-05-13 11h30.51.797545 -0700,
,Someday_104_condition.wav,Someday__Someday__Maybe__Unabridged___File_047_of_116_0.wav,Do you feel good about it I'm not sure I think so The audience laughed Lots of people said I did well But I have no idea who any of them were or if they were the ones I needed to impress But the laughing thing was getting such a positive reaction from the audience The writer decided to give me a line Jane's eyes go wide No way I know I got really excited too Which is so dumb when you think about it I've done whole plays in summer stock and all those scenes in class,What positive outcome does the narrator mention regarding her audition?,A. The writer decided to give her a line,B. Jane was impressed with her performance,C. She received a standing ovation,D. She secured a lead role in the play,A. The writer decided to give her a line,yes,29.18,,,,,,,,,,,,,0,12,12,12,0,0,0,0,,,,,,,,,,,,,,,,,,,,,,,,,,,,,,,,,,,,,,,,,,,,,,,,,,,,,,,,,,,,,,,,,,,,,,,,,,,,,,,,,,,,,,,,,,p_12,001,2024-05-13_11h30.35.672,speech_rate,2023.2.3,None,2024-05-13 11h30.51.797545 -0700,
,Someday_104_condition.wav,Someday__Someday__Maybe__Unabridged___File_047_of_116_0.wav,Do you feel good about it I'm not sure I think so The audience laughed Lots of people said I did well But I have no idea who any of them were or if they were the ones I needed to impress But the laughing thing was getting such a positive reaction from the audience The writer decided to give me a line Jane's eyes go wide No way I know I got really excited too Which is so dumb when you think about it I've done whole plays in summer stock and all those scenes in class,What positive outcome does the narrator mention regarding her audition?,A. The writer decided to give her a line,B. Jane was impressed with her performance,C. She received a standing ovation,D. She secured a lead role in the play,A. The writer decided to give her a line,yes,29.18,,,,,,,,,,,,,0,12,12,12,,,,,,,,,,,,,,,,,,,,,,,,,,,,,,,,,,,,,,,,,,,,,,,,,,,,,1187.149535542,1197.034971792,0,,,1,9.874420957999973,9.874427125000011,0,,,0,,,,,,,,,,,,,,,,,,,,,,,,,,,,,,p_12,001,2024-05-13_11h30.35.672,speech_rate,2023.2.3,None,2024-05-13 11h30.51.797545 -0700,
,Someday_94_condition-3x.wav,Someday__Someday__Maybe__Unabridged___File_041_of_116_1.wav,He doesn't say anything so I feel obligated to keep going It's as if I'm not driving this train anymore I'm just holding on trying not to crash completely I've always loved the theater I say Thank God It isn't original but it's TRUE at least My dad would take me when I was a kid to whatever little show was playing in our town in Connecticut and we'd also see most of what was in New Haven and sometimes we'd come into the city and it wasn't just theater It was ballet and music and modern dance too I pause,What is the narrator's childhood connection to the theater?,A. She used to perform in school plays,B. Her father would take her to various shows,C. She always dreamed of becoming an actor,D. She was part of a local theater group,B. Her father would take her to various shows,no,11.22375,,,,,,,,,,,,,0,13,13,13,,,,,,,,,1197.048040375,,,,,,,,,,,,,,,1197.688809583,1197.7047328336666,1197.705130708,1208.932938792,1208.93557875,1208.946780333,1209.203246542,1209.203246542,1210.448001917,1211.25612875,10,1.4732971250000446,1,[0.8213032500000281],[0.8213088750001134],,,,,,,,,,,,,,,1211.256573792,1219.686055042,1,8.419974375000038,8.419977916000107,0,,,0,,,0,,,,,,,,,,1197.035581458,1197.048040375,1197.048040375,1197.048040375,1197.688617667,1,[0.6525064170000405],[0.6525096249999933],,,,,,,,,,,,,p_12,001,2024-05-13_11h30.35.672,speech_rate,2023.2.3,None,2024-05-13 11h30.51.797545 -0700,
,Someday_61_condition-5x.wav,Someday__Someday__Maybe__Unabridged___File_030_of_116_0.wav,He said we all we all is not asking you out but why leave a message just to we all me I think he's asking me out in his own way We all means I asked for your number because I think you're cute but I'm seeing someone So I'm trying to pretend to myself that I just asked for your number to be friends with you And I'm asking if you want to have a drink sometime with me and my girlfriend which will never But it helps me feel like less of a shithead for asking for your number in the first place You've been we all'd my friend,What does the term "we all" imply in the context given by the narrator?,A. The person is directly asking the narrator out on a date,B. The person left a message to genuinely make a new friend,C. The person is extending an invitation for a group outing,D. The person might be expressing interest under the guise of friendship despite being in a relationship,D. The person might be expressing interest under the guise of friendship despite being in a relationship,yes,6.086,,,,,,,,,,,,,0,14,14,14,0,0,0,0,0,0,0,0,1230.883194042,,,,,,,,,,,,,,,1220.217503917,1220.2330131666668,1220.229387958,1226.307041417,1226.32123575,1226.331998417,1226.533423875,1226.533423875,1227.965828125,1229.752142458,5.558333333333334,2.7153361250000216,1,[1.7987347499999942],[1.7987377920001109],,,,,,,1230.855520083,1230.883194042,1230.883194042,1253.776443667,the last clip is about how she feels regarding some car or something about transporting,1,[22.91754729200011],[22.917551209000067],,,,,,,,,,,,,,,,,,,,,,1219.686581917,1219.699008167,1219.699008167,1219.699008167,1220.21728825,1,[0.5290675419998934],[0.5290707499998462],1229.752675917,1229.757567583,1230.85484375,1,[1.1016232909998962],[1.1016264580000552],,,,,,,p_12,001,2024-05-13_11h30.35.672,speech_rate,2023.2.3,None,2024-05-13 11h30.51.797545 -0700,
,Someday_61_condition-5x.wav,Someday__Someday__Maybe__Unabridged___File_030_of_116_0.wav,He said we all we all is not asking you out but why leave a message just to we all me I think he's asking me out in his own way We all means I asked for your number because I think you're cute but I'm seeing someone So I'm trying to pretend to myself that I just asked for your number to be friends with you And I'm asking if you want to have a drink sometime with me and my girlfriend which will never But it helps me feel like less of a shithead for asking for your number in the first place You've been we all'd my friend,What does the term "we all" imply in the context given by the narrator?,A. The person is directly asking the narrator out on a date,B. The person left a message to genuinely make a new friend,C. The person is extending an invitation for a group outing,D. The person might be expressing interest under the guise of friendship despite being in a relationship,D. The person might be expressing interest under the guise of friendship despite being in a relationship,yes,6.086,,,,,,,,,,,,,0,14,14,14,0,0,0,0,,,,,,,,,,,,,,,,,,,,,,,,,,,,,,,,,,,,,,,,,,,,,,,,,,,,,,,,,,,,,,,,,,,,,,,,,,,,,,,,,,,,,,,,,,p_12,001,2024-05-13_11h30.35.672,speech_rate,2023.2.3,None,2024-05-13 11h30.51.797545 -0700,
,Someday_61_condition-5x.wav,Someday__Someday__Maybe__Unabridged___File_030_of_116_0.wav,He said we all we all is not asking you out but why leave a message just to we all me I think he's asking me out in his own way We all means I asked for your number because I think you're cute but I'm seeing someone So I'm trying to pretend to myself that I just asked for your number to be friends with you And I'm asking if you want to have a drink sometime with me and my girlfriend which will never But it helps me feel like less of a shithead for asking for your number in the first place You've been we all'd my friend,What does the term "we all" imply in the context given by the narrator?,A. The person is directly asking the narrator out on a date,B. The person left a message to genuinely make a new friend,C. The person is extending an invitation for a group outing,D. The person might be expressing interest under the guise of friendship despite being in a relationship,D. The person might be expressing interest under the guise of friendship despite being in a relationship,yes,6.086,,,,,,,,,,,,,0,14,14,14,,,,,,,,,,,,,,,,,,,,,,,,,,,,,,,,,,,,,,,,,,,,,,,,,,,,,1253.77691525,1262.75324975,1,8.963083874999938,8.963089999999966,0,,,0,,,0,,,,,,,,,,,,,,,,,,,,,,,,,,,,,,p_12,001,2024-05-13_11h30.35.672,speech_rate,2023.2.3,None,2024-05-13 11h30.51.797545 -0700,
,Someday_15_condition-3x.wav,Someday__Someday__Maybe__Unabridged___File_009_of_116_3.wav,Whenever Jane talks about Russell Blakely all I can picture is that line everybody was quoting from his last movie Steel Entrapment where he calls out to Cordelia Biscayne honey I'm home while hanging by one hand from the landing gear of a helicopter bare chested Today's special is from the set of Kill Time an assortment of bagels that were only out on the craft service table for about three hours but are not sadly accompanied by cream cheese and that Chinese rice thing that Dan likes which I don't think was too aggressively sneezed upon,What does Russell Blakely call out to Cordelia Biscayne in the movie Steel Entrapment?,A. "Sweetie I'm out",B. "Baby I'm back",C. "Darling I've arrived",D. "Honey I'm home",D. "Honey I'm home",no,11.00625,,,,,,,,,,,,,0,15,15,15,,,,,,,,,1262.761306667,,,,,,,,,,,,,,,1264.029333333,1264.0444753746667,1264.04602575,1275.052957,1275.0556685,1275.066864042,1275.320599042,1275.320599042,1276.586746167,1277.842143708,9.191666666666666,1.4948180829999274,1,[1.2648467920000712],[1.2648494170000504],,,,,,,,,,,,,,,1277.842579708,1288.754371833,0,,,1,10.902637334000019,10.90264137500003,0,,,0,,,,,,,,,,1262.753841667,1262.761306667,1262.761306667,1262.761306667,1264.029049125,1,[1.2731489999998757],[1.2731523749998814],,,,,,,,,,,,,p_12,001,2024-05-13_11h30.35.672,speech_rate,2023.2.3,None,2024-05-13 11h30.51.797545 -0700,
,Someday_73_condition-4x.wav,Someday__Someday__Maybe__Unabridged___File_035_of_116_1.wav,It's four flights up to Barney's office I'm puffing by the time I make it to the top There's no secretary sitting at the desk in the little front room Hello I say to the emptiness Back here dear comes a loud and raspy voice There's a desk with a window behind it and bookshelves on either side which are stacked to the ceiling with scripts and old playbills The titles are written in Sharpie on the edge of the pages so they can be read when stacked face to face and the block print is bold but shaky,What are the stacked objects at Barney Sparks' office?,A. Scripts,B. Paychecks,C. Menus,D. Photos,A. Scripts,no,7.335,,,,,,,,,,,,,0,16,16,16,,,,,,,,,1288.761963625,,,,,,,,,,,,,,,1289.304753208,1289.3202532916666,1289.318498667,1296.654359792,1296.658451042,1296.669657542,1296.871930958,1296.871930958,1298.405184458,1299.238782833,1.4833333333333334,1.7101983749998908,1,[0.8432650830000057],[0.8432684169999902],,,,,,,,,,,,,,,1299.23923075,1307.198803917,1,7.951946291000013,7.9519495000001825,0,,,0,,,0,,,,,,,,,,1288.754911292,1288.761963625,1288.761963625,1288.761963625,1289.304523375,1,[0.547965417000114],[0.5479687500001091],,,,,,,,,,,,,p_12,001,2024-05-13_11h30.35.672,speech_rate,2023.2.3,None,2024-05-13 11h30.51.797545 -0700,
,Someday_125_condition-2x.wav,Someday__Someday__Maybe__Unabridged___File_054_of_116_5.wav,I sit up as if he might be able to see through the telephone that I was lying down at an undignified hour still in the shorts and tank top I slept in I clear my throat and try to make my voice sound more awake It's me It's her That doesn't sound right It is I Hello I Did I wake you up No I'm awake Have a cold Oh shoot Is it a really bad one Joe has an audition for you I've just made an extremely speedy recovery Great Great,What does the narrator say she has?,A. A cold,B. A headache,C. A sore throat,D. A flu,A. A cold,yes,14.96496875,,,,,,,,,,,,,0,17,17,17,0,0,0,0,0,0,0,0,1327.85567675,,,,,,,,,,,,,,,1309.523023958,1309.5379235836667,1309.5426204999999,1324.505512333,1324.506322667,1324.5173883749999,1324.723828833,1324.723828833,1325.823489333,1326.9513985,9.9,1.280986541999937,1,[1.137471332999894],[1.137474291999979],,,,,,,1327.8442985,1327.85567675,1327.85567675,1357.841580458,the narrator is talking about how they were sick and are strugglign to figure out what to say to this guy and says it is I which is kinda funny and the guy says you have a part in a play,0,,,,,,,,,,,,,,,,,,,,,,,,1307.199388625,1307.20617775,1307.20617775,1307.20617775,1309.522747542,1,[2.321139500000072],[2.3211426660000143],1326.95187175,1326.95659775,1327.843467833,1,[0.8904197909998857],[0.8904256660000556],1357.858793,1357.858793,,,,,p_12,001,2024-05-13_11h30.35.672,speech_rate,2023.2.3,None,2024-05-13 11h30.51.797545 -0700,
,Someday_125_condition-2x.wav,Someday__Someday__Maybe__Unabridged___File_054_of_116_5.wav,I sit up as if he might be able to see through the telephone that I was lying down at an undignified hour still in the shorts and tank top I slept in I clear my throat and try to make my voice sound more awake It's me It's her That doesn't sound right It is I Hello I Did I wake you up No I'm awake Have a cold Oh shoot Is it a really bad one Joe has an audition for you I've just made an extremely speedy recovery Great Great,What does the narrator say she has?,A. A cold,B. A headache,C. A sore throat,D. A flu,A. A cold,yes,14.96496875,,,,,,,,,,,,,0,17,17,17,0,0,0,0,,,,,,,,,,,,,,,,,,,,,,,,,,,,,,,,,,,,,,,,,,,,,,,,,,,,,,,,,,,,,,,,,,,,,,,,,,,,,,,,,,,,,,,,,,p_12,001,2024-05-13_11h30.35.672,speech_rate,2023.2.3,None,2024-05-13 11h30.51.797545 -0700,
,Someday_125_condition-2x.wav,Someday__Someday__Maybe__Unabridged___File_054_of_116_5.wav,I sit up as if he might be able to see through the telephone that I was lying down at an undignified hour still in the shorts and tank top I slept in I clear my throat and try to make my voice sound more awake It's me It's her That doesn't sound right It is I Hello I Did I wake you up No I'm awake Have a cold Oh shoot Is it a really bad one Joe has an audition for you I've just made an extremely speedy recovery Great Great,What does the narrator say she has?,A. A cold,B. A headache,C. A sore throat,D. A flu,A. A cold,yes,14.96496875,,,,,,,,,,,,,0,17,17,17,,,,,,,,,,,,,,,,,,,,,,,,,,,,,,,,,,,,,,,,,,,,,,,,,,,,,1357.842004083,1361.808481083,1,3.9585842920000687,3.9585875840000426,0,,,0,,,0,,,,,,,,,,,,,,,,,,,,,,,,,,,,,,p_12,001,2024-05-13_11h30.35.672,speech_rate,2023.2.3,None,2024-05-13 11h30.51.797545 -0700,
,Someday_25_condition.wav,Someday__Someday__Maybe__Unabridged___File_015_of_116_1.wav,Yeah and could you maybe put your hair in a ponytail Yeah I'm even less sure of what I did the second time but the stick straights laugh again anyway I think a hair is funnier down don't you One of them says to the other who nods vigorously back As I leave the room I stuff the paper with the copy on it in my bag even though you're not supposed to take it with you and bolt for the elevator I walk a few blocks and I'm not sure what direction I'm so excited that they seem to like me that I'm dizzy and disoriented,What do the casting directors suggest regarding the narrator's hair?,A. They ask her to wear it down,B. They ask her to put it in a ponytail,C. They don't mention her hair,D. They suggest she wears a wig,B. They ask her to put it in a ponytail,no,28.74,,,,,,,,,,,,,0,18,18,18,,,,,,,,,1361.8149865,,,,,,,,,,,,,,,1362.541822208,1362.5743569163333,1362.572991542,1391.326052625,1391.326605458,1391.348067042,1391.608041083,1391.608041083,1393.153205458,1394.039726292,9.108333333333333,1.7770938339999702,1,[0.8956087090000437],[0.8956116249999013],,,,,,,,,,,,,,,1394.040215917,1397.036452042,1,2.986561208000012,2.986564208000118,0,,,0,,,0,,,,,,,,,,1361.809041417,1361.8149865,1361.8149865,1361.8149865,1362.541617083,1,[0.7320192500001212],[0.7320225000000846],,,,,,,,,,,,,p_12,001,2024-05-13_11h30.35.672,speech_rate,2023.2.3,None,2024-05-13 11h30.51.797545 -0700,
,Someday_13_condition.wav,Someday__Someday__Maybe__Unabridged___File_009_of_116_1.wav,After hanging up with my dad I think I hear Jane downstairs home from the set which means I might actually get something to eat before I get on the train I made it onto the actual wait list I call while coming down the stairs To see the famous nutritionist person Yes Also do I have a problem with cigarettes You seem to be doing just fine with them Jane says dumping a large brown bag onto the top of our never used oven with a thud She's wearing a trench coat we found at the Goodwill in Prospect Heights and her signature giant red vintage sunglasses,What is Jane's signature accessorize?,A. Red vintage sunglasses,B. A red trenchcoat,C. Red platform boots,D. A brown belt,A. Red vintage sunglasses,yes,30.32,,,,,,,,,,,,,0,19,19,19,0,0,0,0,0,0,0,0,1430.682199708,,,,,,,,,,,,,,,1397.561027375,1397.609716625,1397.600132708,1427.928661708,1427.934335417,1427.955907125,1428.163297292,1428.163297292,1429.144048625,1429.82512975,9.891666666666666,1.1605932499999199,1,[0.6936460000001716],[0.6936489580000398],,,,,,,1430.671366125,1430.682199708,1430.682199708,1460.670634,the narrator is talking about the woman shes seeing in front of her and the woman has vintage sunglasses and is coming down stairs and there are general thoughts,0,,,,,,,,,,,,,,,,,,,,,,,,1397.0369901669999,1397.043978875,1397.043978875,1397.043978875,1397.560820292,1,[0.522149249999984],[0.5221528750000743],1429.825644083,1429.83053975,1430.67059,1,[0.8439228330000788],[0.8439259159999892],1460.689858833,1460.689858833,,,,,p_12,001,2024-05-13_11h30.35.672,speech_rate,2023.2.3,None,2024-05-13 11h30.51.797545 -0700,
,Someday_13_condition.wav,Someday__Someday__Maybe__Unabridged___File_009_of_116_1.wav,After hanging up with my dad I think I hear Jane downstairs home from the set which means I might actually get something to eat before I get on the train I made it onto the actual wait list I call while coming down the stairs To see the famous nutritionist person Yes Also do I have a problem with cigarettes You seem to be doing just fine with them Jane says dumping a large brown bag onto the top of our never used oven with a thud She's wearing a trench coat we found at the Goodwill in Prospect Heights and her signature giant red vintage sunglasses,What is Jane's signature accessorize?,A. Red vintage sunglasses,B. A red trenchcoat,C. Red platform boots,D. A brown belt,A. Red vintage sunglasses,yes,30.32,,,,,,,,,,,,,0,19,19,19,0,0,0,0,,,,,,,,,,,,,,,,,,,,,,,,,,,,,,,,,,,,,,,,,,,,,,,,,,,,,,,,,,,,,,,,,,,,,,,,,,,,,,,,,,,,,,,,,,p_12,001,2024-05-13_11h30.35.672,speech_rate,2023.2.3,None,2024-05-13 11h30.51.797545 -0700,
,Someday_13_condition.wav,Someday__Someday__Maybe__Unabridged___File_009_of_116_1.wav,After hanging up with my dad I think I hear Jane downstairs home from the set which means I might actually get something to eat before I get on the train I made it onto the actual wait list I call while coming down the stairs To see the famous nutritionist person Yes Also do I have a problem with cigarettes You seem to be doing just fine with them Jane says dumping a large brown bag onto the top of our never used oven with a thud She's wearing a trench coat we found at the Goodwill in Prospect Heights and her signature giant red vintage sunglasses,What is Jane's signature accessorize?,A. Red vintage sunglasses,B. A red trenchcoat,C. Red platform boots,D. A brown belt,A. Red vintage sunglasses,yes,30.32,,,,,,,,,,,,,0,19,19,19,,,,,,,,,,,,,,,,,,,,,,,,,,,,,,,,,,,,,,,,,,,,,,,,,,,,,1460.671058333,1463.483242667,1,2.8025032089999513,2.8025063340000997,0,,,0,,,0,,,,,,,,,,,,,,,,,,,,,,,,,,,,,,p_12,001,2024-05-13_11h30.35.672,speech_rate,2023.2.3,None,2024-05-13 11h30.51.797545 -0700,
,Someday_105_condition-4x.wav,Someday__Someday__Maybe__Unabridged___File_047_of_116_1.wav,Like he was a person but from another planet or something But the longer I work for him the more I see he's just this guy this very unusually gorgeous extremely muscly guy who's sort of funny and sort of smart but who's a regular person who married the girl he dated in high school and doesn't seem to know how he got here He seems totally baffled by his success and he's always asking my opinion about things like his wardrobe or whatever And I'm wondering if he's forgotten I'm just the PA on my very first movie ever,What is the narrator's perception of the person she works for?,A. He's like a person from another planet,B. He's extremely muscly and smart,C. He's very confident and self-assured,D. He's just a regular person baffled by his success,D. He's just a regular person baffled by his success,yes,7.465,,,,,,,,,,,,,0,20,20,20,0,0,0,0,0,0,0,0,1476.310764833,,,,,,,,,,,,,,,1464.020581958,1464.0360905416667,1464.034554542,1471.49755525,1471.504033583,1471.515237542,1471.777330167,1471.777330167,1473.831777375,1475.376745625,4.2,2.746110083000076,1,[1.5546055410000008],[1.5546082079999906],,,,,,,1476.299319208,1476.310764833,1476.310764833,1500.366634292,describing the wordrobe of the man she's looking at and the person is also describing the personality of the guy ,1,[24.064001707999978],[24.064005292000047],,,,,,,,,,,,,,,,,,,,,,1463.483812792,1463.49662625,1463.49662625,1463.49662625,1464.020392,1,[0.534796624999899],[0.5348006249998889],1475.377248833,1475.381731833,1476.298520542,1,[0.9206580420000137],[0.9206612499999665],,,,,,,p_12,001,2024-05-13_11h30.35.672,speech_rate,2023.2.3,None,2024-05-13 11h30.51.797545 -0700,
,Someday_105_condition-4x.wav,Someday__Someday__Maybe__Unabridged___File_047_of_116_1.wav,Like he was a person but from another planet or something But the longer I work for him the more I see he's just this guy this very unusually gorgeous extremely muscly guy who's sort of funny and sort of smart but who's a regular person who married the girl he dated in high school and doesn't seem to know how he got here He seems totally baffled by his success and he's always asking my opinion about things like his wardrobe or whatever And I'm wondering if he's forgotten I'm just the PA on my very first movie ever,What is the narrator's perception of the person she works for?,A. He's like a person from another planet,B. He's extremely muscly and smart,C. He's very confident and self-assured,D. He's just a regular person baffled by his success,D. He's just a regular person baffled by his success,yes,7.465,,,,,,,,,,,,,0,20,20,20,0,0,0,0,,,,,,,,,,,,,,,,,,,,,,,,,,,,,,,,,,,,,,,,,,,,,,,,,,,,,,,,,,,,,,,,,,,,,,,,,,,,,,,,,,,,,,,,,,p_12,001,2024-05-13_11h30.35.672,speech_rate,2023.2.3,None,2024-05-13 11h30.51.797545 -0700,
,Someday_105_condition-4x.wav,Someday__Someday__Maybe__Unabridged___File_047_of_116_1.wav,Like he was a person but from another planet or something But the longer I work for him the more I see he's just this guy this very unusually gorgeous extremely muscly guy who's sort of funny and sort of smart but who's a regular person who married the girl he dated in high school and doesn't seem to know how he got here He seems totally baffled by his success and he's always asking my opinion about things like his wardrobe or whatever And I'm wondering if he's forgotten I'm just the PA on my very first movie ever,What is the narrator's perception of the person she works for?,A. He's like a person from another planet,B. He's extremely muscly and smart,C. He's very confident and self-assured,D. He's just a regular person baffled by his success,D. He's just a regular person baffled by his success,yes,7.465,,,,,,,,,,,,,0,20,20,20,,,,,,,,,,,,,,,,,,,,,,,,,,,,,,,,,,,,,,,,,,,,,,,,,,,,,1500.36702775,1510.582448958,1,10.204201250000096,10.20420404100014,0,,,0,,,0,,,,,,,,,,,,,,,,,,,,,,,,,,,,,,p_12,001,2024-05-13_11h30.35.672,speech_rate,2023.2.3,None,2024-05-13 11h30.51.797545 -0700,
,Someday_77_condition-3x.wav,Someday__Someday__Maybe__Unabridged___File_035_of_116_5.wav,I'm embarrassed to tell a stranger even a kind one all that I've been hoping for What a dumb question I'm asking It's torture telling someone what you want when you don't have it yet isn't it Barney says How are you supposed to know yet Am I right That makes me laugh Yes As my father the great Broadway director Irving Sparks always used to say we all have to start somewhere So start somewhere anywhere Give me an idea of what it is you'd like to do Tell me everything What is your dream,What advice that Barney Sparks give to the narrator?,A. To be picky,B. To start from somewhere,C. To find something else to do,D. To patiently wait for the right part,B. To start from somewhere,yes,11.0025,,,,,,,,,,,,,0,21,21,21,0,0,0,0,0,0,0,0,1525.652003458,,,,,,,,,,,,,,,1511.239779167,1511.2552660416666,1511.255521917,1522.257509417,1522.258224458,1522.269121542,1522.535257125,1522.535257125,1523.760412375,1524.901982333,9.024999999999999,1.4633710830000837,1,[1.150512375000062],[1.1505154999999831],,,,,,,1525.641048792,1525.652003458,1525.652003458,1553.51049025,the narrator is being asked to describe her dream her goals and her feeling about doing acting or theater to this guy and hes asking to hear all the things,1,[27.866222832999938],[27.866226750000124],,,,,,,,,,,,,,,,,,,,,,1510.58289875,1510.5890735,1510.5890735,1510.5890735,1511.239596625,1,[0.6552338330000111],[0.6552372500000274],1524.902512542,1524.915969208,1525.640504833,1,[0.7373879169999782],[0.7373908750000737],,,,,,,p_12,001,2024-05-13_11h30.35.672,speech_rate,2023.2.3,None,2024-05-13 11h30.51.797545 -0700,
,Someday_77_condition-3x.wav,Someday__Someday__Maybe__Unabridged___File_035_of_116_5.wav,I'm embarrassed to tell a stranger even a kind one all that I've been hoping for What a dumb question I'm asking It's torture telling someone what you want when you don't have it yet isn't it Barney says How are you supposed to know yet Am I right That makes me laugh Yes As my father the great Broadway director Irving Sparks always used to say we all have to start somewhere So start somewhere anywhere Give me an idea of what it is you'd like to do Tell me everything What is your dream,What advice that Barney Sparks give to the narrator?,A. To be picky,B. To start from somewhere,C. To find something else to do,D. To patiently wait for the right part,B. To start from somewhere,yes,11.0025,,,,,,,,,,,,,0,21,21,21,0,0,0,0,,,,,,,,,,,,,,,,,,,,,,,,,,,,,,,,,,,,,,,,,,,,,,,,,,,,,,,,,,,,,,,,,,,,,,,,,,,,,,,,,,,,,,,,,,p_12,001,2024-05-13_11h30.35.672,speech_rate,2023.2.3,None,2024-05-13 11h30.51.797545 -0700,
,Someday_77_condition-3x.wav,Someday__Someday__Maybe__Unabridged___File_035_of_116_5.wav,I'm embarrassed to tell a stranger even a kind one all that I've been hoping for What a dumb question I'm asking It's torture telling someone what you want when you don't have it yet isn't it Barney says How are you supposed to know yet Am I right That makes me laugh Yes As my father the great Broadway director Irving Sparks always used to say we all have to start somewhere So start somewhere anywhere Give me an idea of what it is you'd like to do Tell me everything What is your dream,What advice that Barney Sparks give to the narrator?,A. To be picky,B. To start from somewhere,C. To find something else to do,D. To patiently wait for the right part,B. To start from somewhere,yes,11.0025,,,,,,,,,,,,,0,21,21,21,,,,,,,,,,,,,,,,,,,,,,,,,,,,,,,,,,,,,,,,,,,,,,,,,,,,,1553.510935375,1559.570194167,0,,,1,6.049537291999968,6.049541041999873,0,,,0,,,,,,,,,,,,,,,,,,,,,,,,,,,,,,p_12,001,2024-05-13_11h30.35.672,speech_rate,2023.2.3,None,2024-05-13 11h30.51.797545 -0700,
,Someday_106_condition.wav,Someday__Someday__Maybe__Unabridged___File_047_of_116_2.wav,Someone goes for him Someone does everything for him And he seems miserable He reads everything they write about him in the magazines and he gets so upset When work is over and his wife is back in LA he doesn't seem to know what to do with himself And he goes out with the guys from the crew who aren't even really his friends And they get drunk and it ends up on page six I keep thinking someone should be helping him in a different way or there should be some sort of manual for him because he just doesn't seem to be enjoying any of it,How does the person the narrator works for behave when he's not working?,A. He enjoys his free time and socializes with friends,B. He reads about himself in magazines and gets upset,C. He spends time with his wife in LA,D. He writes a manual for himself to navigate success,B. He reads about himself in magazines and gets upset,no,28.55,,,,,,,,,,,,,0,22,22,22,,,,,,,,,1559.578196667,,,,,,,,,,,,,,,1560.820852792,1560.8523323753334,1560.851245833,1589.404738875,1589.407749958,1589.429185542,1589.693875292,1589.693875292,1592.772195,1593.788867333,9.9,3.318502416000001,1,[1.0260157910001908],[1.0260216660001333],,,,,,,,,,,,,,,1593.78935875,1598.92269175,0,,,1,5.12303929199993,5.123042917000021,0,,,0,,,,,,,,,,1559.570769667,1559.578196667,1559.578196667,1559.578196667,1560.8205875419999,1,[1.247495082999876],[1.2474984999998924],,,,,,,,,,,,,p_12,001,2024-05-13_11h30.35.672,speech_rate,2023.2.3,None,2024-05-13 11h30.51.797545 -0700,
,Someday_32_condition-4x.wav,Someday__Someday__Maybe__Unabridged___File_018_of_116_0.wav,Navigating the crowd on the sidewalk is a challenge I like I'm running without touching anyone else on the street I'm a character in a human video game keeping my bubble of space from being invaded eyeing an open slot on the sidewalk speeding up to grab it before someone else does slowing down until I see another space working together with the strangers on the street as though we're all performing an elaborate dance perfectly choreographed for thousands of people I'm happy A guy I like got my number,How does the narrator feel while navigating the crowded sidewalk?,A. Anxious,B. Happy,C. Frustrated,D. Confused,B. Happy,yes,7.2675,,,,,,,,,,,,,0,23,23,23,0,0,0,0,0,0,0,0,1617.984792583,,,,,,,,,,,,,,,1607.439761083,1607.4549802916667,1607.453668083,1614.722663458,1614.72521125,1614.735995625,1614.938775208,1614.938775208,1616.661136958,1617.223863792,5.108333333333333,1.9005414580001343,1,[0.5716933749999953],[0.5716966249999587],,,,,,,1617.973692292,1617.984792583,1617.984792583,1632.307232333,a guy got her number and shes describing people dancing in the street as well as some other details ,1,[14.330091834000086],[14.330101209000077],,,,,,,,,,,,,,,,,,,,,,1598.923272417,1598.929716958,1598.929716958,1598.929716958,1607.43946425,1,[8.515528666000137],[8.515535625000211],1617.224415833,1617.238453,1617.972942167,1,[0.7478744170000482],[0.747877625000001],,,,,,,p_12,001,2024-05-13_11h30.35.672,speech_rate,2023.2.3,None,2024-05-13 11h30.51.797545 -0700,
,Someday_32_condition-4x.wav,Someday__Someday__Maybe__Unabridged___File_018_of_116_0.wav,Navigating the crowd on the sidewalk is a challenge I like I'm running without touching anyone else on the street I'm a character in a human video game keeping my bubble of space from being invaded eyeing an open slot on the sidewalk speeding up to grab it before someone else does slowing down until I see another space working together with the strangers on the street as though we're all performing an elaborate dance perfectly choreographed for thousands of people I'm happy A guy I like got my number,How does the narrator feel while navigating the crowded sidewalk?,A. Anxious,B. Happy,C. Frustrated,D. Confused,B. Happy,yes,7.2675,,,,,,,,,,,,,0,23,23,23,0,0,0,0,,,,,,,,,,,,,,,,,,,,,,,,,,,,,,,,,,,,,,,,,,,,,,,,,,,,,,,,,,,,,,,,,,,,,,,,,,,,,,,,,,,,,,,,,,p_12,001,2024-05-13_11h30.35.672,speech_rate,2023.2.3,None,2024-05-13 11h30.51.797545 -0700,
,Someday_32_condition-4x.wav,Someday__Someday__Maybe__Unabridged___File_018_of_116_0.wav,Navigating the crowd on the sidewalk is a challenge I like I'm running without touching anyone else on the street I'm a character in a human video game keeping my bubble of space from being invaded eyeing an open slot on the sidewalk speeding up to grab it before someone else does slowing down until I see another space working together with the strangers on the street as though we're all performing an elaborate dance perfectly choreographed for thousands of people I'm happy A guy I like got my number,How does the narrator feel while navigating the crowded sidewalk?,A. Anxious,B. Happy,C. Frustrated,D. Confused,B. Happy,yes,7.2675,,,,,,,,,,,,,0,23,23,23,,,,,,,,,,,,,,,,,,,,,,,,,,,,,,,,,,,,,,,,,,,,,,,,,,,,,1632.307706625,1638.4840415419999,0,,,1,6.167667208000012,6.167670625000028,0,,,0,,,,,,,,,,,,,,,,,,,,,,,,,,,,,,p_12,001,2024-05-13_11h30.35.672,speech_rate,2023.2.3,None,2024-05-13 11h30.51.797545 -0700,
,Someday_62_condition-5x.wav,Someday__Someday__Maybe__Unabridged___File_030_of_116_1.wav,Maybe he'd think I'd played the part dozens of times That would teach the anonymous voice to respect me At the Old Horse Theater in Princeton New Jersey he said Did I detect a hint of sarcasm in his voice OK thanks There was a silence on the other end Any other details Well it's none of my business but I'd never heard of it So I looked it up and that theater doesn't seem to exist,Why did he look up the Old Horse Theater?,A. To have some information about it,B. To apply for a role there,C. To learn about its upcoming shows,"D. To plan a trip to Princeton, New Jersey",A. To have some information about it,yes,5.75,,,,,,,,,,,,,0,24,24,24,0,0,0,0,0,0,0,0,1648.108713125,,,,,,,,,,,,,,,1639.52479675,1639.5401157496667,1639.5366999999999,1645.2806062079999,1645.293612917,1645.304302292,1645.537695417,1645.537695417,1646.508344042,1647.175701875,1.55,1.1792153339999913,1,[0.6761727919999885],[0.6761758750001263],,,,,,,1648.096633042,1648.108713125,1648.108713125,1659.008755542,something about his voice ,1,[10.908748791000107],[10.908752208000124],,,,,,,,,,,,,,,,,,,,,,1638.484631625,1638.492024083,1638.492024083,1638.492024083,1639.524553083,1,[1.0380866660000265],[1.0380899580000005],1647.176271708,1647.1813535,1648.095746583,1,[0.918810583000095],[0.9188169169999583],,,,,,,p_12,001,2024-05-13_11h30.35.672,speech_rate,2023.2.3,None,2024-05-13 11h30.51.797545 -0700,
,Someday_62_condition-5x.wav,Someday__Someday__Maybe__Unabridged___File_030_of_116_1.wav,Maybe he'd think I'd played the part dozens of times That would teach the anonymous voice to respect me At the Old Horse Theater in Princeton New Jersey he said Did I detect a hint of sarcasm in his voice OK thanks There was a silence on the other end Any other details Well it's none of my business but I'd never heard of it So I looked it up and that theater doesn't seem to exist,Why did he look up the Old Horse Theater?,A. To have some information about it,B. To apply for a role there,C. To learn about its upcoming shows,"D. To plan a trip to Princeton, New Jersey",A. To have some information about it,yes,5.75,,,,,,,,,,,,,0,24,24,24,0,0,0,0,,,,,,,,,,,,,,,,,,,,,,,,,,,,,,,,,,,,,,,,,,,,,,,,,,,,,,,,,,,,,,,,,,,,,,,,,,,,,,,,,,,,,,,,,,p_12,001,2024-05-13_11h30.35.672,speech_rate,2023.2.3,None,2024-05-13 11h30.51.797545 -0700,
,Someday_62_condition-5x.wav,Someday__Someday__Maybe__Unabridged___File_030_of_116_1.wav,Maybe he'd think I'd played the part dozens of times That would teach the anonymous voice to respect me At the Old Horse Theater in Princeton New Jersey he said Did I detect a hint of sarcasm in his voice OK thanks There was a silence on the other end Any other details Well it's none of my business but I'd never heard of it So I looked it up and that theater doesn't seem to exist,Why did he look up the Old Horse Theater?,A. To have some information about it,B. To apply for a role there,C. To learn about its upcoming shows,"D. To plan a trip to Princeton, New Jersey",A. To have some information about it,yes,5.75,,,,,,,,,,,,,0,24,24,24,,,,,,,,,,,,,,,,,,,,,,,,,,,,,,,,,,,,,,,,,,,,,,,,,,,,,1659.009226875,1672.842615417,1,13.822634082999912,13.822640124999907,0,,,0,,,0,,,,,,,,,,,,,,,,,,,,,,,,,,,,,,p_12,001,2024-05-13_11h30.35.672,speech_rate,2023.2.3,None,2024-05-13 11h30.51.797545 -0700,
,Someday_20_condition.wav,Someday__Someday__Maybe__Unabridged___File_012_of_116_1.wav,Upstairs the waiting room is crowded which means there must be a few different casting calls There are boys and girls near the age of the elevator twins a couple of men in their 50s both in suit and tie and several girls who remind me of me but a better more put together me the me who would play me in the TV movie of the fictional life of the real me I sign in Name time arrived time scheduled agency social security number,What observation does the narrator make about the individuals in the waiting room?,A. They are all likely there for the same casting call,B. They are unorganized and scattered,"C. They appear to be different versions of the narrator, better and more composed",D. They are unrelated to the narrator's field of work,"C. They appear to be different versions of the narrator, better and more composed",yes,27.41,,,,,,,,,,,,,0,25,25,25,0,0,0,0,0,0,0,0,1706.717079667,,,,,,,,,,,,,,,1673.460134208,1673.4921507083334,1673.489616667,1700.910762667,1700.913821083,1700.935545375,1701.166506,1701.166506,1702.982862333,1704.934078458,9.916666666666666,3.469404250000025,1,[1.9607946669998455],[1.9607973749998564],,,,,,,1706.705666167,1706.717079667,1706.717079667,1734.8880361669999,the narrator is at an audition for a play about themselves and is signing into the theater and the audition is packed,1,[28.17910662500003],[28.179110417000174],,,,,,,,,,,,,,,,,,,,,,1672.843132708,1672.849898583,1672.849898583,1672.849898583,1673.459878167,1,[0.6148863749999691],[0.6148897919999854],1704.934573917,1704.943330042,1706.704896958,1,[1.7690567499998906],[1.7690601249998963],,,,,,,p_12,001,2024-05-13_11h30.35.672,speech_rate,2023.2.3,None,2024-05-13 11h30.51.797545 -0700,
,Someday_20_condition.wav,Someday__Someday__Maybe__Unabridged___File_012_of_116_1.wav,Upstairs the waiting room is crowded which means there must be a few different casting calls There are boys and girls near the age of the elevator twins a couple of men in their 50s both in suit and tie and several girls who remind me of me but a better more put together me the me who would play me in the TV movie of the fictional life of the real me I sign in Name time arrived time scheduled agency social security number,What observation does the narrator make about the individuals in the waiting room?,A. They are all likely there for the same casting call,B. They are unorganized and scattered,"C. They appear to be different versions of the narrator, better and more composed",D. They are unrelated to the narrator's field of work,"C. They appear to be different versions of the narrator, better and more composed",yes,27.41,,,,,,,,,,,,,0,25,25,25,0,0,0,0,,,,,,,,,,,,,,,,,,,,,,,,,,,,,,,,,,,,,,,,,,,,,,,,,,,,,,,,,,,,,,,,,,,,,,,,,,,,,,,,,,,,,,,,,,p_12,001,2024-05-13_11h30.35.672,speech_rate,2023.2.3,None,2024-05-13 11h30.51.797545 -0700,
,Someday_20_condition.wav,Someday__Someday__Maybe__Unabridged___File_012_of_116_1.wav,Upstairs the waiting room is crowded which means there must be a few different casting calls There are boys and girls near the age of the elevator twins a couple of men in their 50s both in suit and tie and several girls who remind me of me but a better more put together me the me who would play me in the TV movie of the fictional life of the real me I sign in Name time arrived time scheduled agency social security number,What observation does the narrator make about the individuals in the waiting room?,A. They are all likely there for the same casting call,B. They are unorganized and scattered,"C. They appear to be different versions of the narrator, better and more composed",D. They are unrelated to the narrator's field of work,"C. They appear to be different versions of the narrator, better and more composed",yes,27.41,,,,,,,,,,,,,0,25,25,25,,,,,,,,,,,,,,,,,,,,,,,,,,,,,,,,,,,,,,,,,,,,,,,,,,,,,1734.888520458,1740.581034708,0,,,0,,,1,5.679914457999985,5.679918124999858,0,,,,,,,,,,,,,,,,,,,,,,,,,,,,,,p_12,001,2024-05-13_11h30.35.672,speech_rate,2023.2.3,None,2024-05-13 11h30.51.797545 -0700,
,Someday_95_condition-3x.wav,Someday__Someday__Maybe__Unabridged___File_041_of_116_2.wav,Sports God no no That's hilarious to think about I laugh picturing me and my dad who have been known to spend an entire weekend sitting in the living room reading books one after the other stopping only to eat a frozen pizza or make popcorn playing tennis or skiing or kayaking down some rapids Competitive like I always made everything a game when I was a kid I have a good memory and so does my dad so we try to stump each other like try to start reciting Jabberwocky from the middle,What does the narrator and their dad often do on weekends?,A. Play sports together,B. Go kayaking down rapids,C. Reading books,D. Watch movies and eat popcorn,C. Reading books,no,10.99875,,,,,,,,,,,,,0,26,26,26,,,,,,,,,1740.589992792,,,,,,,,,,,,,,,1741.113955833,1741.1292976246666,1741.1302335,1752.119451542,1752.13275075,1752.14394625,1752.416138625,1752.416138625,1754.190400958,1754.859166208,9.333333333333334,2.019050249999964,1,[0.6785035000000335],[0.6785062910000761],,,,,,,,,,,,,,,1754.859590917,1762.006339625,0,,,0,,,0,,,1,7.1377683749999505,7.1377718749999985,,,,,,,,1740.581619583,1740.589992792,1740.589992792,1740.589992792,1741.113701167,1,[0.5298696659999678],[0.5298730409999735],,,,,,,,,,,,,p_12,001,2024-05-13_11h30.35.672,speech_rate,2023.2.3,None,2024-05-13 11h30.51.797545 -0700,
,Someday_118_condition-2x.wav,Someday__Someday__Maybe__Unabridged___File_053_of_116_0.wav,The stuff in the bowl I am holding must look as bad as I thought Wow look at you Where'd you get the boots Maybe I can distract her by talking about fashion Don't try to distract me by talking about fashion Seriously what is that It's uh food For an astronaut No it's this wonderful new diet food I bought it off the television I've been trying to keep my spirits up by experimenting with different diets So far none of them have worked,Why does the narrator ask about the boots?,A. To distract from the topic of food,B. To compliment the fashion sense,C. To mock the appearance,D. To change the subject to fashion,A. To distract from the topic of food,no,14.78,,,,,,,,,,,,,0,27,27,27,,,,,,,,,1762.029265875,,,,,,,,,,,,,,,1762.7487188329999,1762.7638930416667,1762.767638792,1777.536424667,1777.54952425,1777.560640333,1777.764202,1777.764202,1779.515457625,1780.067876,9.1,1.9301065839999865,1,[0.5618390419999741],[0.5618450829999801],,,,,,,,,,,,,,,1780.068322,1786.141362292,1,6.064029459000039,6.064032458999918,0,,,0,,,0,,,,,,,,,,1762.006845167,1762.029265875,1762.029265875,1762.029265875,1762.748430292,1,[0.739769749999823],[0.739773249999871],,,,,,,,,,,,,p_12,001,2024-05-13_11h30.35.672,speech_rate,2023.2.3,None,2024-05-13 11h30.51.797545 -0700,
,Someday_31_condition-4x.wav,Someday__Someday__Maybe__Unabridged___File_017_of_116_3.wav,Yeah and then I have stuff you know with all of my agents too I say hands flapping vaguely in the air Very cool Who are you with I realize I'm too exhausted to continue I'm with it's all in my head ink You're what Oh I get it You're kidding Ha Yes I'm kidding I'm currently between agents currently and formerly between them,What is the narrator's current agent situation?,A. She has one agent,B. She has no agents,C. She has more than two agents,D. She has two agents,B. She has no agents,no,6.755,,,,,,,,,,,,,0,28,28,28,,,,,,,,,1786.1473363329999,,,,,,,,,,,,,,,1787.888297542,1787.9034763746668,1787.900804292,1794.666032542,1794.668730208,1794.6790895,1794.886949042,1794.886949042,1796.281497125,1796.818265583,6.666666666666667,1.5747538749999421,1,[0.5484784999998737],[0.548481708999816],,,,,,,,,,,,,,,1796.818729958,1804.769279958,0,,,1,7.941842916000041,7.9418464580001,0,,,0,,,,,,,,,,1786.141832375,1786.1473363329999,1786.1473363329999,1786.1473363329999,1787.888021292,1,[1.7455084580001312],[1.745511917000158],,,,,,,,,,,,,p_12,001,2024-05-13_11h30.35.672,speech_rate,2023.2.3,None,2024-05-13 11h30.51.797545 -0700,
,Someday_91_condition-5x.wav,Someday__Someday__Maybe__Unabridged___File_040_of_116_0.wav,Please go ahead and begin your monologue whenever you're ready We can chat afterwards Take your time His words are encouraging but his face is neutral at best And when there are two people in a room and one of them is there purely to see the other person do something the notion that that person could actually take their time seems ridiculous But I try I try to take a deep breath but the air gets sort of stuck and doesn't go all the way down to my lungs I need a minute to calm down but I can't possibly take it,What is the narrator's reaction to the suggestion to take her time?,A. She feels comforted,B. She finds it ridiculous,C. She rejects the offer,D. She chats with the agent first,B. She finds it ridiculous,yes,5.718,,,,,,,,,,,,,0,29,29,29,0,0,0,0,0,0,0,0,1814.469432792,,,,,,,,,,,,,,,1805.273832958,1805.2896762086666,1805.28535725,1811.017204667,1811.017813458,1811.028161125,1811.2497825,1811.2497825,1813.067626375,1813.651502958,2.6500000000000004,2.0151976669999385,1,[0.5931345000001329],[0.5931404590000966],,,,,,,1814.458065417,1814.469432792,1814.469432792,1828.3180682079999,trying to eat something and scarf it down fast but is nervous about something,1,[13.856323583000176],[13.856327625000176],,,,,,,,,,,,,,,,,,,,,,1804.770036625,1804.782878125,1804.782878125,1804.782878125,1805.273648042,1,[0.5017910829999437],[0.5017942079998647],1813.652048458,1813.6571325,1814.45731425,1,[0.8044863750001241],[0.8044900419999976],,,,,,,p_12,001,2024-05-13_11h30.35.672,speech_rate,2023.2.3,None,2024-05-13 11h30.51.797545 -0700,
,Someday_91_condition-5x.wav,Someday__Someday__Maybe__Unabridged___File_040_of_116_0.wav,Please go ahead and begin your monologue whenever you're ready We can chat afterwards Take your time His words are encouraging but his face is neutral at best And when there are two people in a room and one of them is there purely to see the other person do something the notion that that person could actually take their time seems ridiculous But I try I try to take a deep breath but the air gets sort of stuck and doesn't go all the way down to my lungs I need a minute to calm down but I can't possibly take it,What is the narrator's reaction to the suggestion to take her time?,A. She feels comforted,B. She finds it ridiculous,C. She rejects the offer,D. She chats with the agent first,B. She finds it ridiculous,yes,5.718,,,,,,,,,,,,,0,29,29,29,0,0,0,0,,,,,,,,,,,,,,,,,,,,,,,,,,,,,,,,,,,,,,,,,,,,,,,,,,,,,,,,,,,,,,,,,,,,,,,,,,,,,,,,,,,,,,,,,,p_12,001,2024-05-13_11h30.35.672,speech_rate,2023.2.3,None,2024-05-13 11h30.51.797545 -0700,
,Someday_91_condition-5x.wav,Someday__Someday__Maybe__Unabridged___File_040_of_116_0.wav,Please go ahead and begin your monologue whenever you're ready We can chat afterwards Take your time His words are encouraging but his face is neutral at best And when there are two people in a room and one of them is there purely to see the other person do something the notion that that person could actually take their time seems ridiculous But I try I try to take a deep breath but the air gets sort of stuck and doesn't go all the way down to my lungs I need a minute to calm down but I can't possibly take it,What is the narrator's reaction to the suggestion to take her time?,A. She feels comforted,B. She finds it ridiculous,C. She rejects the offer,D. She chats with the agent first,B. She finds it ridiculous,yes,5.718,,,,,,,,,,,,,0,29,29,29,,,,,,,,,,,,,,,,,,,,,,,,,,,,,,,,,,,,,,,,,,,,,,,,,,,,,1828.318627833,1834.919398833,0,,,1,6.5906540420000965,6.590657375000092,0,,,0,,,,,,,,,,,,,,,,,,,,,,,,,,,,,,p_12,001,2024-05-13_11h30.35.672,speech_rate,2023.2.3,None,2024-05-13 11h30.51.797545 -0700,
,Someday_6_condition-2x.wav,Someday__Someday__Maybe__Unabridged___File_006_of_116_0.wav,Why I'm having audition anxiety dreams A wave of dread crashes over me as I remember When I looked at the year at a glance calendar and my brown leather file of facts last night I realized that as of today there are exactly six months left on the deal I made with myself when I first came to New York that I'd see what I could accomplish in three years But if I wasn't well on my way to having a real career as an actor by then I absolutely wouldn't keep at it after that,What is the reason for the narrator's audition anxiety dreams?,A. She forgot her lines in an audition,B. She's worried about a three-year career goal,C. She's excited about her upcoming auditions,D. She's afraid of flying to auditions,B. She's worried about a three-year career goal,yes,14.85996875,,,,,,,,,,,,,0,30,30,30,0,0,0,0,0,0,0,0,1856.44935325,,,,,,,,,,,,,,,1837.19240225,1837.2077004166667,1837.212063792,1852.090997375,1852.072648167,1852.082925125,1852.315448417,1852.315448417,1854.8620105,1855.598619583,10.0,2.7542657079998207,1,[0.745898458000056],[0.7459014579999348],,,,,,,1856.438033375,1856.44935325,1856.44935325,1875.905332667,narrator is talking about how she needs to be fully committed to being an actor in order to be sucesssfull but she has her doubs,1,[19.464057583000113],[19.46406112500017],,,,,,,,,,,,,,,,,,,,,,1834.919921667,1834.927178708,1834.927178708,1834.927178708,1837.192182167,1,[2.270410250000168],[2.270413625000174],1855.599122667,1855.603932542,1856.436958958,1,[0.8371577499999603],[0.8371609999999237],,,,,,,p_12,001,2024-05-13_11h30.35.672,speech_rate,2023.2.3,None,2024-05-13 11h30.51.797545 -0700,
