index,wav_file,old_name,segment_text,question,C1,C2,C3,C4,C_correct,summary,duration,training.thisRepN,training.thisTrialN,training.thisN,training.thisIndex,sum_true.thisRepN,sum_true.thisTrialN,sum_true.thisN,sum_true.thisIndex,dummy_loop.thisRepN,dummy_loop.thisTrialN,dummy_loop.thisN,dummy_loop.thisIndex,experiment.thisRepN,experiment.thisTrialN,experiment.thisN,experiment.thisIndex,sum_true_exp.thisRepN,sum_true_exp.thisTrialN,sum_true_exp.thisN,sum_true_exp.thisIndex,dummy_loop_exp.thisRepN,dummy_loop_exp.thisTrialN,dummy_loop_exp.thisN,dummy_loop_exp.thisIndex,thisRow.t,notes,Experimenter.started,reminder.started,Experimenter.stopped,Instructions.started,Instructions.stopped,Start_Segment_Train.started,Play_train.started,Trial_counter_train.started,text_5.started,Start_Segment_Train.stopped,Play_train.numClicks,Play_train.timesOn,Play_train.timesOff,Training_Segment.started,Experimen_audio.started,polygon.started,polygon.stopped,Training_Segment.stopped,Rating.started,slider.started,text_3.started,button_2.started,Rating.stopped,slider.response,slider.rt,button_2.numClicks,button_2.timesOn,button_2.timesOff,Start_Summary.started,text_2.started,Start_Summary.stopped,summary_button.numClicks,summary_button.timesOn,summary_button.timesOff,Summary.started,textbox.started,summary_done.started,Summary.stopped,textbox.text,summary_done.numClicks,summary_done.timesOn,summary_done.timesOff,Multiple_Choice_2.started,Multiple_Choice_2.stopped,A.numClicks,A.timesOn,A.timesOff,B.numClicks,B.timesOn,B.timesOff,C.numClicks,C.timesOn,C.timesOff,D.numClicks,D.timesOn,D.timesOff,Start_Exp.started,Start_exp.started,Start.started,Start_Exp.stopped,Start.numClicks,Start.timesOn,Start.timesOff,Start_Segment.started,Play.started,Trial_counter.started,text_6.started,Start_Segment.stopped,Play.numClicks,Play.timesOn,Play.timesOff,Start_Sum_Exp.started,text_4.started,Start_Sum_Exp.stopped,sum_button.numClicks,sum_button.timesOn,sum_button.timesOff,textbox.stopped,summary_done.stopped,Thanks.started,text_7.started,text_7.stopped,Thanks.stopped,participant,session,date,expName,psychopyVersion,frameRate,expStart,
1,Someday_trial_condition.wav,Someday__Someday__Maybe__Unabridged___File_069_of_116_3.wav,It's a gut feeling You can't nickname him He's a real person not a joke person You don't have to tell me Only a real person would try to shake hands with my best friend's foot Jane you're not explaining it right It was very romantic And thankfully our steaming bowl of bright yellow melted cheese with flecks of green chilies arrives Listen she says dipping a chip into the creamy depths You're the one with the brand new personality I'm still the same old Jane,"What does the narrator have, according to Jane?",A) A new recipe for dipping sauce,B) A new personality,C) A new restaurant suggestion,D) A new pair of shoes,B) A new personality,yes,30,0,0,0,0,0,0,0,0,0,0,0,0,,,,,,,,,,,,,332.275940334,,0.011410666999992713,0.021467083999993974,282.13618329199994,282.13619837500005,290.777601292,290.788226584,290.804478875,290.804478875,290.804478875,294.14215379200004,1,[3.3451636670000084],[3.3451665420000154],294.142520375,294.191784167,294.18777895899996,324.206563542,324.177579625,324.19874345899996,324.406681125,324.406681125,326.62792312499994,327.83791366699995,10,2.4041017499999953,1,[1.2197789159999957],[1.219781290999947],327.840142334,327.84594416699997,332.23172962499996,1,[4.390792042000044],[4.390797625000005],332.23257754199994,332.275940334,332.275940334,362.235541917,"It was a conversation between Jane and somebody else, invoving Jane's new personality(?) and a bowl of soup",0,,,,,,,,,,,,,,,,,,,,,,,,,,,,,,,,,,,,,,,,,,,,p_13,001,2024-05-15_13h50.40.639,speech_rate,2023.2.3,None,2024-05-15 13h51.08.347568 -0700,
1,Someday_trial_condition.wav,Someday__Someday__Maybe__Unabridged___File_069_of_116_3.wav,It's a gut feeling You can't nickname him He's a real person not a joke person You don't have to tell me Only a real person would try to shake hands with my best friend's foot Jane you're not explaining it right It was very romantic And thankfully our steaming bowl of bright yellow melted cheese with flecks of green chilies arrives Listen she says dipping a chip into the creamy depths You're the one with the brand new personality I'm still the same old Jane,"What does the narrator have, according to Jane?",A) A new recipe for dipping sauce,B) A new personality,C) A new restaurant suggestion,D) A new pair of shoes,B) A new personality,yes,30,0,0,0,0,0,0,0,0,,,,,,,,,,,,,,,,,,,,,,,,,,,,,,,,,,,,,,,,,,,,,,,,,,,,,,,,,,,,,,,,,,,,,,,,,,,,,,,,,,,,,,,,,,,,,,,,,,,,,,p_13,001,2024-05-15_13h50.40.639,speech_rate,2023.2.3,None,2024-05-15 13h51.08.347568 -0700,
1,Someday_trial_condition.wav,Someday__Someday__Maybe__Unabridged___File_069_of_116_3.wav,It's a gut feeling You can't nickname him He's a real person not a joke person You don't have to tell me Only a real person would try to shake hands with my best friend's foot Jane you're not explaining it right It was very romantic And thankfully our steaming bowl of bright yellow melted cheese with flecks of green chilies arrives Listen she says dipping a chip into the creamy depths You're the one with the brand new personality I'm still the same old Jane,"What does the narrator have, according to Jane?",A) A new recipe for dipping sauce,B) A new personality,C) A new restaurant suggestion,D) A new pair of shoes,B) A new personality,yes,30,0,0,0,0,,,,,,,,,,,,,,,,,,,,,,,,,,,,,,,,,,,,,,,,,,,,,,,,,,,,,,,,,,,,,,,,,362.23593870900004,366.33726816700005,0,,,1,4.080104166000012,4.080106875000013,0,,,0,,,,,,,,,,,,,,,,,,,,,,,,,,,,,,p_13,001,2024-05-15_13h50.40.639,speech_rate,2023.2.3,None,2024-05-15 13h51.08.347568 -0700,
2,Someday_trial_condition-5x.wav,Someday__Someday__Maybe__Unabridged___File_103_of_116_1.wav,Isn't halfway where two people usually meet Well in general maybe But tonight this is sort of a big deal for me It's my night I'm not sure you you don't think I get it Well no I mean how could you I'm having trouble making sense of this conversation James is speaking with authority but there's something wrong Something feels so wrong somehow I don't care about waving and smiling and having my picture taken with him,"How does James speak, according to the narrator?",A) With compassion,B) With grief,C) With hesitation,D) With authority,D) With authority,yes,6.2,0,1,1,1,0,0,0,0,0,0,0,0,,,,,,,,,,,,,379.8771815,,,,,,,366.33795275,366.34610266699997,366.34610266699997,366.34610266699997,368.363539917,1,[2.022387832999982],[2.0223906659999784],368.363814125,368.37934479166665,368.376689584,374.58273999999994,374.56391870899995,374.57511124999996,374.840205417,374.840205417,376.16866237499994,377.79084929199996,1.0,1.5685750000000098,1,[1.6313652919999981],[1.6313679170000341],377.791357459,377.812036959,379.86400945900004,1,[2.072220791999996],[2.072223625000049],379.86486612500005,379.8771815,379.8771815,381.638036125,,1,[1.7691953749999811],[1.7691983749999736],,,,,,,,,,,,,,,,,,,,,,,,,,,,,,,,,,,,,,,,,,p_13,001,2024-05-15_13h50.40.639,speech_rate,2023.2.3,None,2024-05-15 13h51.08.347568 -0700,
2,Someday_trial_condition-5x.wav,Someday__Someday__Maybe__Unabridged___File_103_of_116_1.wav,Isn't halfway where two people usually meet Well in general maybe But tonight this is sort of a big deal for me It's my night I'm not sure you you don't think I get it Well no I mean how could you I'm having trouble making sense of this conversation James is speaking with authority but there's something wrong Something feels so wrong somehow I don't care about waving and smiling and having my picture taken with him,"How does James speak, according to the narrator?",A) With compassion,B) With grief,C) With hesitation,D) With authority,D) With authority,yes,6.2,0,1,1,1,0,0,0,0,,,,,,,,,,,,,,,,,,,,,,,,,,,,,,,,,,,,,,,,,,,,,,,,,,,,,,,,,,,,,,,,,,,,,,,,,,,,,,,,,,,,,,,,,,,,,,,,,,,,,,p_13,001,2024-05-15_13h50.40.639,speech_rate,2023.2.3,None,2024-05-15 13h51.08.347568 -0700,
2,Someday_trial_condition-5x.wav,Someday__Someday__Maybe__Unabridged___File_103_of_116_1.wav,Isn't halfway where two people usually meet Well in general maybe But tonight this is sort of a big deal for me It's my night I'm not sure you you don't think I get it Well no I mean how could you I'm having trouble making sense of this conversation James is speaking with authority but there's something wrong Something feels so wrong somehow I don't care about waving and smiling and having my picture taken with him,"How does James speak, according to the narrator?",A) With compassion,B) With grief,C) With hesitation,D) With authority,D) With authority,yes,6.2,0,1,1,1,,,,,,,,,,,,,,,,,,,,,,,,,,,,,,,,,,,,,,,,,,,,,,,,,,,,,,,,,,,,,,,,,381.638452667,387.38105970899994,0,,,1,5.732134250000001,5.732137458000011,0,,,0,,,,,,,,,,,,,,,,,,,,,,,,,,,,,,p_13,001,2024-05-15_13h50.40.639,speech_rate,2023.2.3,None,2024-05-15 13h51.08.347568 -0700,
,Someday_53_condition.wav,Someday__Someday__Maybe__Unabridged___File_026_of_116_1.wav,It can be dangerous to take the subway all the way to Brooklyn this late I should take a cab she's right but I'm too embarrassed to tell her I only have about 8 in cash on me and probably less than 20 in my bank account so I can't even go to a cash machine I'll get tips and a tiny paycheck at my shift at the club tomorrow night which I'll take directly to the check cashing place on the skeevy part of Fifth Avenue in Brooklyn which will charge me almost a quarter of the check to turn it into immediate cash but I can't wait the five to seven days for the bank to clear it or the electric bill will bounce,Why is the narrator embarrassed to take a cab?,A. She doesn't have enough cash,B. She doesn't want to spend money,C. She prefers the subway,D. She doesn't know how to hail a cab,A. She doesn't have enough cash,no,29.43,,,,,,,,,,,,,0,0,0,0,,,,,,,,,388.743338,,,,,,,,,,,,,,,422.60413270900006,422.65288975000004,422.64489404200003,452.067457667,452.085567084,452.106965792,452.311138334,452.311138334,455.2018726250001,455.85194025,9.941666666666666,3.070334709000008,1,[0.6588977910000722],[0.6589006250000011],,,,,,,,,,,,,,,455.852765,459.70240883400004,1,3.838253125000051,3.8382560000000012,0,,,0,,,0,,,387.381535709,387.39659812499997,387.39659812499997,388.68445075,1,[1.3016893329999562],[1.3016984159999652],388.73290224999994,388.743338,388.743338,388.743338,422.60372970900005,1,[33.86746670799994],[33.867469583],,,,,,,,,,,,,p_13,001,2024-05-15_13h50.40.639,speech_rate,2023.2.3,None,2024-05-15 13h51.08.347568 -0700,
,Someday_14_condition-3x.wav,Someday__Someday__Maybe__Unabridged___File_009_of_116_2.wav,Jane grew up in Greenwich Village in Manhattan and has style Where I struggle to match a black shirt with black pants she throws on jeans and a t shirt and nine chunky cuffs on one wrist with an air that says so I dare you to not find this cool She shops at Century 21 and Boltons and second hand stores and somehow makes it all look expensive Wait Jane Levine you are not just getting home are you I ask peeking into one of the brown bags Can they do that to you,Where did Jane grow up in?,A. Williamsburg,B. Greenwich Village,C. SoHo,D. Queens,B. Greenwich Village,yes,10.56,,,,,,,,,,,,,0,1,1,1,0,0,0,0,0,0,0,0,477.81905645899997,,,,,,,,,,,,,,,461.508016375,461.5236283336667,461.52788887500003,472.11685820900004,472.08802079200007,472.109476459,472.32396370900005,472.32396370900005,473.98568783400003,475.347105584,2.058333333333333,1.8516640420000385,1,[1.370787416999974],[1.3707898330000035],,,,,,,477.80730533400003,477.81905645899997,477.81905645899997,505.536625834,Jane is shopping at a mall and somehow makes it all look expensive even though she shops at lower-end retail stores,1,[27.726082541999972],[27.72608620799997],,,,,,,,,,,,,,,,,,,,,,459.703518334,459.7105345,459.7105345,459.7105345,461.507817584,1,[1.8027814160000162],[1.8027843749999874],475.347655875,475.352580667,477.8064568340001,1,[2.457804499999952],[2.457817041999988],,,,,,,p_13,001,2024-05-15_13h50.40.639,speech_rate,2023.2.3,None,2024-05-15 13h51.08.347568 -0700,
,Someday_14_condition-3x.wav,Someday__Someday__Maybe__Unabridged___File_009_of_116_2.wav,Jane grew up in Greenwich Village in Manhattan and has style Where I struggle to match a black shirt with black pants she throws on jeans and a t shirt and nine chunky cuffs on one wrist with an air that says so I dare you to not find this cool She shops at Century 21 and Boltons and second hand stores and somehow makes it all look expensive Wait Jane Levine you are not just getting home are you I ask peeking into one of the brown bags Can they do that to you,Where did Jane grow up in?,A. Williamsburg,B. Greenwich Village,C. SoHo,D. Queens,B. Greenwich Village,yes,10.56,,,,,,,,,,,,,0,1,1,1,0,0,0,0,,,,,,,,,,,,,,,,,,,,,,,,,,,,,,,,,,,,,,,,,,,,,,,,,,,,,,,,,,,,,,,,,,,,,,,,,,,,,,,,,,,,,,,,,,p_13,001,2024-05-15_13h50.40.639,speech_rate,2023.2.3,None,2024-05-15 13h51.08.347568 -0700,
,Someday_14_condition-3x.wav,Someday__Someday__Maybe__Unabridged___File_009_of_116_2.wav,Jane grew up in Greenwich Village in Manhattan and has style Where I struggle to match a black shirt with black pants she throws on jeans and a t shirt and nine chunky cuffs on one wrist with an air that says so I dare you to not find this cool She shops at Century 21 and Boltons and second hand stores and somehow makes it all look expensive Wait Jane Levine you are not just getting home are you I ask peeking into one of the brown bags Can they do that to you,Where did Jane grow up in?,A. Williamsburg,B. Greenwich Village,C. SoHo,D. Queens,B. Greenwich Village,yes,10.56,,,,,,,,,,,,,0,1,1,1,,,,,,,,,,,,,,,,,,,,,,,,,,,,,,,,,,,,,,,,,,,,,,,,,,,,,505.537108334,508.772169125,0,,,1,3.2250397919999614,3.2250430420000384,0,,,0,,,,,,,,,,,,,,,,,,,,,,,,,,,,,,p_13,001,2024-05-15_13h50.40.639,speech_rate,2023.2.3,None,2024-05-15 13h51.08.347568 -0700,
,Someday_13_condition-3x.wav,Someday__Someday__Maybe__Unabridged___File_009_of_116_1.wav,After hanging up with my dad I think I hear Jane downstairs home from the set which means I might actually get something to eat before I get on the train I made it onto the actual wait list I call while coming down the stairs To see the famous nutritionist person Yes Also do I have a problem with cigarettes You seem to be doing just fine with them Jane says dumping a large brown bag onto the top of our never used oven with a thud She's wearing a trench coat we found at the Goodwill in Prospect Heights and her signature giant red vintage sunglasses,What is Jane's signature accessorize?,A. Red vintage sunglasses,B. A red trenchcoat,C. Red platform boots,D. A brown belt,A. Red vintage sunglasses,yes,11.38875,,,,,,,,,,,,,0,2,2,2,0,0,0,0,0,0,0,0,534.520468209,,,,,,,,,,,,,,,510.02228745900004,510.0369480006667,510.03968766700007,521.4382554590001,521.439604959,521.450892375,521.718150875,521.718150875,523.739035084,527.855570542,3.15,4.0612487910000254,1,[4.126157124999963],[4.1261596670000245],,,,,,,534.508198334,534.520468209,534.520468209,564.306421334,The narrator asks Jane if shes doing ok and asks if Jane has a problem smoking cigarrettes. Jane is holding a large bag and talking about her dad,1,[29.795007249999912],[29.795010582999907],,,,,,,,,,,,,,,,,,,,,,508.772777875,508.780350417,508.780350417,508.780350417,510.021435292,1,[1.246675792000019],[1.2466785830000617],527.856165209,527.860773,534.5071685,1,[6.650594999999953],[6.650597833999996],,,,,,,p_13,001,2024-05-15_13h50.40.639,speech_rate,2023.2.3,None,2024-05-15 13h51.08.347568 -0700,
,Someday_13_condition-3x.wav,Someday__Someday__Maybe__Unabridged___File_009_of_116_1.wav,After hanging up with my dad I think I hear Jane downstairs home from the set which means I might actually get something to eat before I get on the train I made it onto the actual wait list I call while coming down the stairs To see the famous nutritionist person Yes Also do I have a problem with cigarettes You seem to be doing just fine with them Jane says dumping a large brown bag onto the top of our never used oven with a thud She's wearing a trench coat we found at the Goodwill in Prospect Heights and her signature giant red vintage sunglasses,What is Jane's signature accessorize?,A. Red vintage sunglasses,B. A red trenchcoat,C. Red platform boots,D. A brown belt,A. Red vintage sunglasses,yes,11.38875,,,,,,,,,,,,,0,2,2,2,0,0,0,0,,,,,,,,,,,,,,,,,,,,,,,,,,,,,,,,,,,,,,,,,,,,,,,,,,,,,,,,,,,,,,,,,,,,,,,,,,,,,,,,,,,,,,,,,,p_13,001,2024-05-15_13h50.40.639,speech_rate,2023.2.3,None,2024-05-15 13h51.08.347568 -0700,
,Someday_13_condition-3x.wav,Someday__Someday__Maybe__Unabridged___File_009_of_116_1.wav,After hanging up with my dad I think I hear Jane downstairs home from the set which means I might actually get something to eat before I get on the train I made it onto the actual wait list I call while coming down the stairs To see the famous nutritionist person Yes Also do I have a problem with cigarettes You seem to be doing just fine with them Jane says dumping a large brown bag onto the top of our never used oven with a thud She's wearing a trench coat we found at the Goodwill in Prospect Heights and her signature giant red vintage sunglasses,What is Jane's signature accessorize?,A. Red vintage sunglasses,B. A red trenchcoat,C. Red platform boots,D. A brown belt,A. Red vintage sunglasses,yes,11.38875,,,,,,,,,,,,,0,2,2,2,,,,,,,,,,,,,,,,,,,,,,,,,,,,,,,,,,,,,,,,,,,,,,,,,,,,,564.30691325,566.910852917,0,,,1,2.593402332999972,2.5934096660000705,0,,,0,,,,,,,,,,,,,,,,,,,,,,,,,,,,,,p_13,001,2024-05-15_13h50.40.639,speech_rate,2023.2.3,None,2024-05-15 13h51.08.347568 -0700,
,Someday_95_condition-2x.wav,Someday__Someday__Maybe__Unabridged___File_041_of_116_2.wav,Sports God no no That's hilarious to think about I laugh picturing me and my dad who have been known to spend an entire weekend sitting in the living room reading books one after the other stopping only to eat a frozen pizza or make popcorn playing tennis or skiing or kayaking down some rapids Competitive like I always made everything a game when I was a kid I have a good memory and so does my dad so we try to stump each other like try to start reciting Jabberwocky from the middle,What does the narrator and their dad often do on weekends?,A. Play sports together,B. Go kayaking down rapids,C. Reading books,D. Watch movies and eat popcorn,C. Reading books,yes,14.66496875,,,,,,,,,,,,,0,3,3,3,0,0,0,0,0,0,0,0,590.157719375,,,,,,,,,,,,,,,569.3253570420001,569.3574301253333,569.348621209,584.0253817920001,584.027218417,584.049516917,584.325740125,584.325740125,588.03507275,588.737104125,6.216666666666667,3.9587303340000517,1,[0.7112366249999695],[0.7112392500000624],,,,,,,590.146473375,590.157719375,590.157719375,617.9115027500001,"Discussed how her and her dad didn't play sports, but instead would sit on the couch and read and eat frozen pizzas and try to quiz and stump each other because they had good memories",1,[27.761867916999904],[27.76187108399995],,,,,,,,,,,,,,,,,,,,,,566.9114436250001,566.9238330420001,566.9238330420001,566.9238330420001,569.3250941250001,1,[2.4132163330000367],[2.4132192910000185],588.73763475,588.74267,590.14548125,1,[1.407129292000036],[1.4071344579999732],,,,,,,p_13,001,2024-05-15_13h50.40.639,speech_rate,2023.2.3,None,2024-05-15 13h51.08.347568 -0700,
,Someday_95_condition-2x.wav,Someday__Someday__Maybe__Unabridged___File_041_of_116_2.wav,Sports God no no That's hilarious to think about I laugh picturing me and my dad who have been known to spend an entire weekend sitting in the living room reading books one after the other stopping only to eat a frozen pizza or make popcorn playing tennis or skiing or kayaking down some rapids Competitive like I always made everything a game when I was a kid I have a good memory and so does my dad so we try to stump each other like try to start reciting Jabberwocky from the middle,What does the narrator and their dad often do on weekends?,A. Play sports together,B. Go kayaking down rapids,C. Reading books,D. Watch movies and eat popcorn,C. Reading books,yes,14.66496875,,,,,,,,,,,,,0,3,3,3,0,0,0,0,,,,,,,,,,,,,,,,,,,,,,,,,,,,,,,,,,,,,,,,,,,,,,,,,,,,,,,,,,,,,,,,,,,,,,,,,,,,,,,,,,,,,,,,,,p_13,001,2024-05-15_13h50.40.639,speech_rate,2023.2.3,None,2024-05-15 13h51.08.347568 -0700,
,Someday_95_condition-2x.wav,Someday__Someday__Maybe__Unabridged___File_041_of_116_2.wav,Sports God no no That's hilarious to think about I laugh picturing me and my dad who have been known to spend an entire weekend sitting in the living room reading books one after the other stopping only to eat a frozen pizza or make popcorn playing tennis or skiing or kayaking down some rapids Competitive like I always made everything a game when I was a kid I have a good memory and so does my dad so we try to stump each other like try to start reciting Jabberwocky from the middle,What does the narrator and their dad often do on weekends?,A. Play sports together,B. Go kayaking down rapids,C. Reading books,D. Watch movies and eat popcorn,C. Reading books,yes,14.66496875,,,,,,,,,,,,,0,3,3,3,,,,,,,,,,,,,,,,,,,,,,,,,,,,,,,,,,,,,,,,,,,,,,,,,,,,,617.911967667,621.094272209,0,,,0,,,1,3.1719318330000306,3.171934792000002,0,,,,,,,,,,,,,,,,,,,,,,,,,,,,,,p_13,001,2024-05-15_13h50.40.639,speech_rate,2023.2.3,None,2024-05-15 13h51.08.347568 -0700,
,Someday_62_condition.wav,Someday__Someday__Maybe__Unabridged___File_030_of_116_1.wav,Maybe he'd think I'd played the part dozens of times That would teach the anonymous voice to respect me At the Old Horse Theater in Princeton New Jersey he said Did I detect a hint of sarcasm in his voice OK thanks There was a silence on the other end Any other details Well it's none of my business but I'd never heard of it So I looked it up and that theater doesn't seem to exist,Why did he look up the Old Horse Theater?,A. To have some information about it,B. To apply for a role there,C. To learn about its upcoming shows,"D. To plan a trip to Princeton, New Jersey",A. To have some information about it,no,28.7,,,,,,,,,,,,,0,4,4,4,,,,,,,,,621.1020160420001,,,,,,,,,,,,,,,622.216528125,622.2492102503334,622.246632542,650.9457550000001,650.951228917,650.973498959,651.240963459,651.240963459,653.477894125,654.313468834,9.016666666666666,2.4767841249999947,1,[0.848239000000035],[0.8482417919999534],,,,,,,,,,,,,,,654.3139388750001,658.499335459,1,4.174770749999993,4.174773542000025,0,,,0,,,0,,,,,,,,,,621.09482025,621.1020160420001,621.1020160420001,621.1020160420001,622.216335375,1,[1.1196004170000151],[1.1196029999999837],,,,,,,,,,,,,p_13,001,2024-05-15_13h50.40.639,speech_rate,2023.2.3,None,2024-05-15 13h51.08.347568 -0700,
,Someday_55_condition-4x.wav,Someday__Someday__Maybe__Unabridged___File_027_of_116_3.wav,I'm mesmerized by her easy way with the awkward looking spoon shaped strainer that holds the tiny leaves and by the diamond engagement ring that glitters on her hand I wonder if she ever takes it off and if it has a napkin it rests on at night too Milk or lemon she asks Um milk I guess Everett and I are the same age but something about the formal way she does everything makes me sit up straighter on the sofa as if I'm at the house of an older relative instead of in my own living room in Brooklyn,What does the narrator do when talking to Everett?,A. She sits up straight,B. She talks with a deeper voice,C. She avoids eye contact,D. She lowers her voice,A. She sits up straight,yes,7.2525,,,,,,,,,,,,,0,5,5,5,0,0,0,0,0,0,0,0,671.4755377920001,,,,,,,,,,,,,,,659.946879167,659.9624340416667,659.961197042,667.213262167,667.216728209,667.238169209,667.449469542,667.449469542,669.284776709,670.264231334,1.0,2.0200028340000244,1,[0.9886831249999659],[0.9886856250000164],,,,,,,671.464643417,671.4755377920001,671.4755377920001,680.513122875,Something about a sofa and a relative,1,[9.045276667000053],[9.045280000000048],,,,,,,,,,,,,,,,,,,,,,658.499907375,658.512050292,658.512050292,658.512050292,659.946641834,1,[1.4445487909999883],[1.4445517910000945],670.2647010420001,670.269320292,671.463914042,1,[1.1986704999999347],[1.1986734160000196],,,,,,,p_13,001,2024-05-15_13h50.40.639,speech_rate,2023.2.3,None,2024-05-15 13h51.08.347568 -0700,
,Someday_55_condition-4x.wav,Someday__Someday__Maybe__Unabridged___File_027_of_116_3.wav,I'm mesmerized by her easy way with the awkward looking spoon shaped strainer that holds the tiny leaves and by the diamond engagement ring that glitters on her hand I wonder if she ever takes it off and if it has a napkin it rests on at night too Milk or lemon she asks Um milk I guess Everett and I are the same age but something about the formal way she does everything makes me sit up straighter on the sofa as if I'm at the house of an older relative instead of in my own living room in Brooklyn,What does the narrator do when talking to Everett?,A. She sits up straight,B. She talks with a deeper voice,C. She avoids eye contact,D. She lowers her voice,A. She sits up straight,yes,7.2525,,,,,,,,,,,,,0,5,5,5,0,0,0,0,,,,,,,,,,,,,,,,,,,,,,,,,,,,,,,,,,,,,,,,,,,,,,,,,,,,,,,,,,,,,,,,,,,,,,,,,,,,,,,,,,,,,,,,,,p_13,001,2024-05-15_13h50.40.639,speech_rate,2023.2.3,None,2024-05-15 13h51.08.347568 -0700,
,Someday_55_condition-4x.wav,Someday__Someday__Maybe__Unabridged___File_027_of_116_3.wav,I'm mesmerized by her easy way with the awkward looking spoon shaped strainer that holds the tiny leaves and by the diamond engagement ring that glitters on her hand I wonder if she ever takes it off and if it has a napkin it rests on at night too Milk or lemon she asks Um milk I guess Everett and I are the same age but something about the formal way she does everything makes me sit up straighter on the sofa as if I'm at the house of an older relative instead of in my own living room in Brooklyn,What does the narrator do when talking to Everett?,A. She sits up straight,B. She talks with a deeper voice,C. She avoids eye contact,D. She lowers her voice,A. She sits up straight,yes,7.2525,,,,,,,,,,,,,0,5,5,5,,,,,,,,,,,,,,,,,,,,,,,,,,,,,,,,,,,,,,,,,,,,,,,,,,,,,680.513571417,687.341554084,0,,,0,,,0,,,1,6.817689959000063,6.8176932500000476,,,,,,,,,,,,,,,,,,,,,,,,,,,,p_13,001,2024-05-15_13h50.40.639,speech_rate,2023.2.3,None,2024-05-15 13h51.08.347568 -0700,
,Someday_93_condition-4x.wav,Someday__Someday__Maybe__Unabridged___File_041_of_116_0.wav,It doesn't even matter whether it's a real person or an actor playing a character and if the person or character is interesting in some way I put myself in his or her shoes imagining what it would feel like what I would say or do if I were that person I don't remember deciding to do this as a career I want to tell him There wasn't any one day where it came to me My mother died and I started pretending it didn't happen to me started imagining what it would be like to have someone else's life story and pretending became a relief,What coping mechanism did the narrator develop after their mother's death?,A. The narrator chose to openly discuss her career decisions,B. The narrator decided to become an actor one specific day,C. The narrator began to use imagination and pretending as a form of escape,D. The narrator focused on the realism of the characters portrayed by actors,C. The narrator began to use imagination and pretending as a form of escape,yes,7.1725,,,,,,,,,,,,,0,6,6,6,0,0,0,0,0,0,0,0,699.410727542,,,,,,,,,,,,,,,688.331467709,688.3474716256667,688.346420875,695.531785625,695.53354625,695.5445510000001,695.766498417,695.766498417,697.291349459,697.9664205,1,1.7197191660000044,1,[0.6839357909999535],[0.6839383749999115],,,,,,,699.3995536250001,699.410727542,699.410727542,707.199983709,Shoes and matching,1,[7.796993332999932],[7.79699662500002],,,,,,,,,,,,,,,,,,,,,,687.3421453340001,687.349786125,687.349786125,687.349786125,688.3312785840001,1,[0.9867240419999916],[0.9867269589999523],697.9669656250001,697.971670375,699.398829834,1,[1.4313091660000055],[1.4313119580000375],,,,,,,p_13,001,2024-05-15_13h50.40.639,speech_rate,2023.2.3,None,2024-05-15 13h51.08.347568 -0700,
,Someday_93_condition-4x.wav,Someday__Someday__Maybe__Unabridged___File_041_of_116_0.wav,It doesn't even matter whether it's a real person or an actor playing a character and if the person or character is interesting in some way I put myself in his or her shoes imagining what it would feel like what I would say or do if I were that person I don't remember deciding to do this as a career I want to tell him There wasn't any one day where it came to me My mother died and I started pretending it didn't happen to me started imagining what it would be like to have someone else's life story and pretending became a relief,What coping mechanism did the narrator develop after their mother's death?,A. The narrator chose to openly discuss her career decisions,B. The narrator decided to become an actor one specific day,C. The narrator began to use imagination and pretending as a form of escape,D. The narrator focused on the realism of the characters portrayed by actors,C. The narrator began to use imagination and pretending as a form of escape,yes,7.1725,,,,,,,,,,,,,0,6,6,6,0,0,0,0,,,,,,,,,,,,,,,,,,,,,,,,,,,,,,,,,,,,,,,,,,,,,,,,,,,,,,,,,,,,,,,,,,,,,,,,,,,,,,,,,,,,,,,,,,p_13,001,2024-05-15_13h50.40.639,speech_rate,2023.2.3,None,2024-05-15 13h51.08.347568 -0700,
,Someday_93_condition-4x.wav,Someday__Someday__Maybe__Unabridged___File_041_of_116_0.wav,It doesn't even matter whether it's a real person or an actor playing a character and if the person or character is interesting in some way I put myself in his or her shoes imagining what it would feel like what I would say or do if I were that person I don't remember deciding to do this as a career I want to tell him There wasn't any one day where it came to me My mother died and I started pretending it didn't happen to me started imagining what it would be like to have someone else's life story and pretending became a relief,What coping mechanism did the narrator develop after their mother's death?,A. The narrator chose to openly discuss her career decisions,B. The narrator decided to become an actor one specific day,C. The narrator began to use imagination and pretending as a form of escape,D. The narrator focused on the realism of the characters portrayed by actors,C. The narrator began to use imagination and pretending as a form of escape,yes,7.1725,,,,,,,,,,,,,0,6,6,6,,,,,,,,,,,,,,,,,,,,,,,,,,,,,,,,,,,,,,,,,,,,,,,,,,,,,707.200447667,718.150893792,0,,,0,,,1,10.93710058399995,10.937103916999945,0,,,,,,,,,,,,,,,,,,,,,,,,,,,,,,p_13,001,2024-05-15_13h50.40.639,speech_rate,2023.2.3,None,2024-05-15 13h51.08.347568 -0700,
,Someday_40_condition-5x.wav,Someday__Someday__Maybe__Unabridged___File_021_of_116_3.wav,Aren't you cold It's James Franklin the last person I want to see right now Nothing could make me feel worse after what happened tonight than to be reminded that a guy I gushed all over got my phone number but never called me Even after I learned that he and Penelope were some sort of couple I held my breath every day for the last two weeks while waiting for the machine to rewind hoping he'd left a message but he never did James smiles at me and stamps his feet rubbing his hands together and blowing on them,Why does the narrator feel embarrassed to see James Franklin?,A. Because he got her phone number but never called,B. Because he is dating Penelope,C. Because he reminds her of a bad experience,D. Because he is unfriendly,A. Because he got her phone number but never called,yes,5.658,,,,,,,,,,,,,0,7,7,7,0,0,0,0,0,0,0,0,737.629593834,,,,,,,,,,,,,,,721.053758584,721.0666216256667,721.082546792,726.743738667,726.725052292,726.7359465420001,726.950892834,726.950892834,728.637910625,730.0220954590001,1.0,1.8773465000000442,1,[1.3932324999999537],[1.393234915999983],,,,,,,737.618428834,737.629593834,737.629593834,745.059161709,Something about her mom,1,[7.437598374999993],[7.4376015420000385],,,,,,,,,,,,,,,,,,,,,,718.151506834,718.1603307500001,718.1603307500001,718.1603307500001,721.05349775,1,[2.898924207999926],[2.8989295829999264],730.022582,730.032477375,737.617709042,1,[7.594560417000025],[7.594563417000018],,,,,,,p_13,001,2024-05-15_13h50.40.639,speech_rate,2023.2.3,None,2024-05-15 13h51.08.347568 -0700,
,Someday_40_condition-5x.wav,Someday__Someday__Maybe__Unabridged___File_021_of_116_3.wav,Aren't you cold It's James Franklin the last person I want to see right now Nothing could make me feel worse after what happened tonight than to be reminded that a guy I gushed all over got my phone number but never called me Even after I learned that he and Penelope were some sort of couple I held my breath every day for the last two weeks while waiting for the machine to rewind hoping he'd left a message but he never did James smiles at me and stamps his feet rubbing his hands together and blowing on them,Why does the narrator feel embarrassed to see James Franklin?,A. Because he got her phone number but never called,B. Because he is dating Penelope,C. Because he reminds her of a bad experience,D. Because he is unfriendly,A. Because he got her phone number but never called,yes,5.658,,,,,,,,,,,,,0,7,7,7,0,0,0,0,,,,,,,,,,,,,,,,,,,,,,,,,,,,,,,,,,,,,,,,,,,,,,,,,,,,,,,,,,,,,,,,,,,,,,,,,,,,,,,,,,,,,,,,,,p_13,001,2024-05-15_13h50.40.639,speech_rate,2023.2.3,None,2024-05-15 13h51.08.347568 -0700,
,Someday_40_condition-5x.wav,Someday__Someday__Maybe__Unabridged___File_021_of_116_3.wav,Aren't you cold It's James Franklin the last person I want to see right now Nothing could make me feel worse after what happened tonight than to be reminded that a guy I gushed all over got my phone number but never called me Even after I learned that he and Penelope were some sort of couple I held my breath every day for the last two weeks while waiting for the machine to rewind hoping he'd left a message but he never did James smiles at me and stamps his feet rubbing his hands together and blowing on them,Why does the narrator feel embarrassed to see James Franklin?,A. Because he got her phone number but never called,B. Because he is dating Penelope,C. Because he reminds her of a bad experience,D. Because he is unfriendly,A. Because he got her phone number but never called,yes,5.658,,,,,,,,,,,,,0,7,7,7,,,,,,,,,,,,,,,,,,,,,,,,,,,,,,,,,,,,,,,,,,,,,,,,,,,,,745.059625459,753.2785538750001,1,8.206830250000053,8.206833291000066,0,,,0,,,0,,,,,,,,,,,,,,,,,,,,,,,,,,,,,,p_13,001,2024-05-15_13h50.40.639,speech_rate,2023.2.3,None,2024-05-15 13h51.08.347568 -0700,
,Someday_120_condition-5x.wav,Someday__Someday__Maybe__Unabridged___File_053_of_116_2.wav,Everything you need is in each packet so it takes the guesswork out of dieting You sound like you've joined a cult What happens when you have to go back to the real world the world where you have to think for yourself Hopefully I'll be so weak and frail that food will have lost its appeal entirely Great plan And who's on Lisa today I'm pretty sure today's show is Women Who Wish Their Best Friends Would Stop Judging Them Har har I'm going to work now Do you want me to take the TV cord with me,"What topic is discussed on Lisa's show, in the narrator's joke?",A. Weight loss programs,B. The challenges of dieting,C. Women's relationships with their best friends,D. The appeal of joining a cult,C. Women's relationships with their best friends,no,5.554,,,,,,,,,,,,,0,8,8,8,,,,,,,,,753.285615625,,,,,,,,,,,,,,,755.350894125,755.3663497506667,755.362258667,760.9187792500001,760.921978375,760.933201292,761.1461457500001,761.1461457500001,762.657138584,764.008424375,1,1.6995154170000433,1,[1.3608173339999894],[1.3608197089999976],,,,,,,,,,,,,,,764.0088349590001,782.529873375,0,,,0,,,1,18.511360999999965,18.511364458000003,0,,,,,,,,,,753.279149417,753.285615625,753.285615625,753.285615625,755.3507027090001,1,[2.0710052090000772],[2.0710080840000273],,,,,,,,,,,,,p_13,001,2024-05-15_13h50.40.639,speech_rate,2023.2.3,None,2024-05-15 13h51.08.347568 -0700,
,Someday_83_condition-4x.wav,Someday__Someday__Maybe__Unabridged___File_037_of_116_4.wav,I sound odd to myself as if I'm playing the part of a professional actress who has meetings all the time and is sort of blasé about them I loved Barney Sparks I want to tell Dan but I'm suspicious of anything that seems too easy I'm not sure why I can't say that now and not sure why I didn't jump at the chance to say yes in Barney's office It feels like I'm an actor in an Italian movie from the 60s saying the placeholder lines into the camera waiting for the real ones that come later,What is the narrator suspicious of?,A. Things that take too long,B. Things that are hard to do,C. Things that seem controversial,D. Things that seem too easy,D. Things that seem too easy,yes,7.2575,,,,,,,,,,,,,0,9,9,9,0,0,0,0,0,0,0,0,795.98693,,,,,,,,,,,,,,,784.043233209,784.0587782506667,784.055820667,791.3097736670001,791.321765875,791.332334584,791.539570084,791.539570084,793.302618959,793.937324209,2.3916666666666666,1.9420184169999857,1,[0.647473290999983],[0.6474757080000018],,,,,,,795.972909209,795.98693,795.98693,803.746270084,The narrator wishes they said yes more often,1,[7.770207000000028],[7.770210750000047],,,,,,,,,,,,,,,,,,,,,,782.530447875,782.538178959,782.538178959,782.538178959,784.043037917,1,[1.5104383749999215],[1.510441333000017],793.937829584,793.942687834,795.972057542,1,[2.0336126249999325],[2.0336155409999037],,,,,,,p_13,001,2024-05-15_13h50.40.639,speech_rate,2023.2.3,None,2024-05-15 13h51.08.347568 -0700,
,Someday_83_condition-4x.wav,Someday__Someday__Maybe__Unabridged___File_037_of_116_4.wav,I sound odd to myself as if I'm playing the part of a professional actress who has meetings all the time and is sort of blasé about them I loved Barney Sparks I want to tell Dan but I'm suspicious of anything that seems too easy I'm not sure why I can't say that now and not sure why I didn't jump at the chance to say yes in Barney's office It feels like I'm an actor in an Italian movie from the 60s saying the placeholder lines into the camera waiting for the real ones that come later,What is the narrator suspicious of?,A. Things that take too long,B. Things that are hard to do,C. Things that seem controversial,D. Things that seem too easy,D. Things that seem too easy,yes,7.2575,,,,,,,,,,,,,0,9,9,9,0,0,0,0,,,,,,,,,,,,,,,,,,,,,,,,,,,,,,,,,,,,,,,,,,,,,,,,,,,,,,,,,,,,,,,,,,,,,,,,,,,,,,,,,,,,,,,,,,p_13,001,2024-05-15_13h50.40.639,speech_rate,2023.2.3,None,2024-05-15 13h51.08.347568 -0700,
,Someday_83_condition-4x.wav,Someday__Someday__Maybe__Unabridged___File_037_of_116_4.wav,I sound odd to myself as if I'm playing the part of a professional actress who has meetings all the time and is sort of blasé about them I loved Barney Sparks I want to tell Dan but I'm suspicious of anything that seems too easy I'm not sure why I can't say that now and not sure why I didn't jump at the chance to say yes in Barney's office It feels like I'm an actor in an Italian movie from the 60s saying the placeholder lines into the camera waiting for the real ones that come later,What is the narrator suspicious of?,A. Things that take too long,B. Things that are hard to do,C. Things that seem controversial,D. Things that seem too easy,D. Things that seem too easy,yes,7.2575,,,,,,,,,,,,,0,9,9,9,,,,,,,,,,,,,,,,,,,,,,,,,,,,,,,,,,,,,,,,,,,,,,,,,,,,,803.746742625,809.1893139590001,0,,,0,,,0,,,1,5.432843166999987,5.432846749999953,,,,,,,,,,,,,,,,,,,,,,,,,,,,p_13,001,2024-05-15_13h50.40.639,speech_rate,2023.2.3,None,2024-05-15 13h51.08.347568 -0700,
,Someday_20_condition-2x.wav,Someday__Someday__Maybe__Unabridged___File_012_of_116_1.wav,Upstairs the waiting room is crowded which means there must be a few different casting calls There are boys and girls near the age of the elevator twins a couple of men in their 50s both in suit and tie and several girls who remind me of me but a better more put together me the me who would play me in the TV movie of the fictional life of the real me I sign in Name time arrived time scheduled agency social security number,What observation does the narrator make about the individuals in the waiting room?,A. They are all likely there for the same casting call,B. They are unorganized and scattered,"C. They appear to be different versions of the narrator, better and more composed",D. They are unrelated to the narrator's field of work,"C. They appear to be different versions of the narrator, better and more composed",yes,13.73,,,,,,,,,,,,,0,10,10,10,0,0,0,0,0,0,0,0,835.224311417,,,,,,,,,,,,,,,810.155155834,810.1711692916667,810.1732665420001,823.905569125,823.907782417,823.930055167,824.15462075,824.15462075,826.2045087500001,829.9839940840001,8.399999999999999,5.26530487499997,1,[3.7921828339999593],[3.79218554199997],,,,,,,835.213263,835.224311417,835.224311417,865.213050875,"The narrator signs into the casting call, and sees a bunch of different people: men in suits, girls who look like her or who would play her if she was the star of a TV show. ",0,,,,,,,,,,,,,,,,,,,,,,,,809.189898584,809.197955375,809.197955375,809.197955375,810.154969209,1,[0.9627376250000452],[0.9627404169999636],829.984494625,829.989516459,835.212460875,1,[5.227515333000042],[5.227518291000024],,,,,,,p_13,001,2024-05-15_13h50.40.639,speech_rate,2023.2.3,None,2024-05-15 13h51.08.347568 -0700,
,Someday_20_condition-2x.wav,Someday__Someday__Maybe__Unabridged___File_012_of_116_1.wav,Upstairs the waiting room is crowded which means there must be a few different casting calls There are boys and girls near the age of the elevator twins a couple of men in their 50s both in suit and tie and several girls who remind me of me but a better more put together me the me who would play me in the TV movie of the fictional life of the real me I sign in Name time arrived time scheduled agency social security number,What observation does the narrator make about the individuals in the waiting room?,A. They are all likely there for the same casting call,B. They are unorganized and scattered,"C. They appear to be different versions of the narrator, better and more composed",D. They are unrelated to the narrator's field of work,"C. They appear to be different versions of the narrator, better and more composed",yes,13.73,,,,,,,,,,,,,0,10,10,10,0,0,0,0,,,,,,,,,,,,,,,,,,,,,,,,,,,,,,,,,,,,,,,,,,,,,,,,,,,,,,,,,,,,,,,,,,,,,,,,,,,,,,,,,,,,,,,,,,p_13,001,2024-05-15_13h50.40.639,speech_rate,2023.2.3,None,2024-05-15 13h51.08.347568 -0700,
,Someday_20_condition-2x.wav,Someday__Someday__Maybe__Unabridged___File_012_of_116_1.wav,Upstairs the waiting room is crowded which means there must be a few different casting calls There are boys and girls near the age of the elevator twins a couple of men in their 50s both in suit and tie and several girls who remind me of me but a better more put together me the me who would play me in the TV movie of the fictional life of the real me I sign in Name time arrived time scheduled agency social security number,What observation does the narrator make about the individuals in the waiting room?,A. They are all likely there for the same casting call,B. They are unorganized and scattered,"C. They appear to be different versions of the narrator, better and more composed",D. They are unrelated to the narrator's field of work,"C. They appear to be different versions of the narrator, better and more composed",yes,13.73,,,,,,,,,,,,,0,10,10,10,,,,,,,,,,,,,,,,,,,,,,,,,,,,,,,,,,,,,,,,,,,,,,,,,,,,,865.213413084,873.5193367090001,0,,,0,,,1,8.293664332999924,8.293684332999987,0,,,,,,,,,,,,,,,,,,,,,,,,,,,,,,p_13,001,2024-05-15_13h50.40.639,speech_rate,2023.2.3,None,2024-05-15 13h51.08.347568 -0700,
,Someday_49_condition.wav,Someday__Someday__Maybe__Unabridged___File_025_of_116_2.wav,Ancient history Dina says but she's smiling And what about ever since I saw Dina in class I've wanted to ask about the series she did And tonight with a drink in my hand and the giddy flush of the day behind me I'm finally feeling bold enough to bring it up The show she says sharing a look with Leighton who smiles sympathetically Sorry I don't mean to It's fine Dina says shaking her head You I don't mind telling,What is Dina's reaction to the narrator's question?,A. She feels uncomfortable,B. She doesn't mind talking about it,C. She gets angry,D. She is happy to receive the question,B. She doesn't mind talking about it,no,28.26,,,,,,,,,,,,,0,11,11,11,,,,,,,,,873.52784325,,,,,,,,,,,,,,,874.892644667,874.9248290003334,874.922637667,903.176857167,903.195579417,903.2178602500001,903.498601334,903.498601334,905.2112869590001,905.9228480840001,10,1.968513082999948,1,[0.7211170419999462],[0.72111991700001],,,,,,,,,,,,,,,905.923272125,909.884464584,0,,,1,3.952220041999908,3.952223291999985,0,,,0,,,,,,,,,,873.520002917,873.52784325,873.52784325,873.52784325,874.892412584,1,[1.3698342499999399],[1.3698369999999613],,,,,,,,,,,,,p_13,001,2024-05-15_13h50.40.639,speech_rate,2023.2.3,None,2024-05-15 13h51.08.347568 -0700,
,Someday_33_condition-4x.wav,Someday__Someday__Maybe__Unabridged___File_018_of_116_2.wav,Well I wouldn't say I'd be amazing in it although thanks for saying so I think I'd just be okay in it I mean it is sort of right in my wheelhouse but I think you'd actually be great in it I'm serious I mean I could do it I guess and I probably would do it if they asked but I think my problem with it isn't the play itself but the guy who's in it now What's his name Anyway it doesn't matter I just think he's not really acting so much as just smoldering or something up there and I'm like buddy you can't just play every scene sexy I mean that's not an active choice,What issue does the narrator have with the actor currently in the play?,A. She thinks he's too active,B. She believes he's too serious,C. She thinks he's smoldering too much,D. She has no issue with him,C. She thinks he's smoldering too much,no,7.6375,,,,,,,,,,,,,0,12,12,12,,,,,,,,,909.8920692500001,,,,,,,,,,,,,,,911.413564292,911.4269325416667,911.427845709,919.0610817500001,919.0668156250001,919.0777165,919.279052292,919.279052292,921.0682086670001,922.9893549589999,1.958333333333333,1.9643065000000206,1,[1.9311903330001314],[1.9311927500000365],,,,,,,,,,,,,,,922.9897854590001,925.7526452500001,0,,,0,,,1,2.7541780840001593,2.7541805420000856,0,,,,,,,,,,909.8849357500001,909.8920692500001,909.8920692500001,909.8920692500001,911.4132940000001,1,[1.526940292000063],[1.5269453330000715],,,,,,,,,,,,,p_13,001,2024-05-15_13h50.40.639,speech_rate,2023.2.3,None,2024-05-15 13h51.08.347568 -0700,
,Someday_92_condition-3x.wav,Someday__Someday__Maybe__Unabridged___File_040_of_116_1.wav,The chair I'm using is a cushiony office chair with wheels and I become aware about halfway through the monologue that I've been sort of sliding back and forth in it the chair with wheels equivalent of pacing I steady my feet on the floor and command myself to stop moving which causes me to forget my next line Shit I've totally lost my place I pause trying to stay in character I look out the window as though I'm she's having an important thought If I relax it will come to me If I panic it will not That's what I've learned in class,Why does the narrator look out the window during the monologue?,A. To take the agent's attention,B. To stay in character and find the next line,C. To see something interesting,D. To distract herself,B. To stay in character and find the next line,yes,11.38125,,,,,,,,,,,,,0,13,13,13,0,0,0,0,0,0,0,0,944.2619475839999,,,,,,,,,,,,,,,927.8455892920001,927.8611039166667,927.8618415420001,939.234107584,939.2474797919999,939.258708625,939.4623530420001,939.4623530420001,941.8778487920001,942.680186709,5.425,2.5911774580001747,1,[0.8147065420000672],[0.8147092500000781],,,,,,,944.250366792,944.2619475839999,944.2619475839999,974.2469384589999,The narrator is performing a monologue but notices her chair has wheels and is sliding around. She looks out the window  becuase she forgot her line and knows that if she relaxes it will come to here bu,0,,,,,,,,,,,,,,,,,,,,,,,,925.7531403339999,925.7592205000001,925.7592205000001,925.7592205000001,927.845342375,1,[2.091708916000016],[2.0917120000001432],942.680725334,942.68564825,944.2493997920001,1,[1.5681848750000427],[1.5681879999999637],974.2667336669999,974.2667336669999,,,,,p_13,001,2024-05-15_13h50.40.639,speech_rate,2023.2.3,None,2024-05-15 13h51.08.347568 -0700,
,Someday_92_condition-3x.wav,Someday__Someday__Maybe__Unabridged___File_040_of_116_1.wav,The chair I'm using is a cushiony office chair with wheels and I become aware about halfway through the monologue that I've been sort of sliding back and forth in it the chair with wheels equivalent of pacing I steady my feet on the floor and command myself to stop moving which causes me to forget my next line Shit I've totally lost my place I pause trying to stay in character I look out the window as though I'm she's having an important thought If I relax it will come to me If I panic it will not That's what I've learned in class,Why does the narrator look out the window during the monologue?,A. To take the agent's attention,B. To stay in character and find the next line,C. To see something interesting,D. To distract herself,B. To stay in character and find the next line,yes,11.38125,,,,,,,,,,,,,0,13,13,13,0,0,0,0,,,,,,,,,,,,,,,,,,,,,,,,,,,,,,,,,,,,,,,,,,,,,,,,,,,,,,,,,,,,,,,,,,,,,,,,,,,,,,,,,,,,,,,,,,p_13,001,2024-05-15_13h50.40.639,speech_rate,2023.2.3,None,2024-05-15 13h51.08.347568 -0700,
,Someday_92_condition-3x.wav,Someday__Someday__Maybe__Unabridged___File_040_of_116_1.wav,The chair I'm using is a cushiony office chair with wheels and I become aware about halfway through the monologue that I've been sort of sliding back and forth in it the chair with wheels equivalent of pacing I steady my feet on the floor and command myself to stop moving which causes me to forget my next line Shit I've totally lost my place I pause trying to stay in character I look out the window as though I'm she's having an important thought If I relax it will come to me If I panic it will not That's what I've learned in class,Why does the narrator look out the window during the monologue?,A. To take the agent's attention,B. To stay in character and find the next line,C. To see something interesting,D. To distract herself,B. To stay in character and find the next line,yes,11.38125,,,,,,,,,,,,,0,13,13,13,,,,,,,,,,,,,,,,,,,,,,,,,,,,,,,,,,,,,,,,,,,,,,,,,,,,,974.2473876670001,982.2636175,0,,,1,8.006431167000073,8.006434417000037,0,,,0,,,,,,,,,,,,,,,,,,,,,,,,,,,,,,p_13,001,2024-05-15_13h50.40.639,speech_rate,2023.2.3,None,2024-05-15 13h51.08.347568 -0700,
,Someday_3_condition.wav,Someday__Someday__Maybe__Unabridged___File_005_of_116_1.wav,I suppose I did but I'm still too groggy to focus on the details Normally I would have asked our other roommate my best friend Jane but she's been working nights as a PA on that new Russell Blakely movie Since Dan moved into the bedroom downstairs a few months ago I haven't noticed much about him except how unnecessarily tall he is how many hours he spends writing at the computer and the intense fear he seems to have about coming upon either of us when we're not decent Dan come in You're decent,What is the main reason the narrator doesn't ask their roommate Jane for help?,A. Jane is too busy working,B. Jane is not a good friend,C. The narrator doesn't trust Jane,D. The narrator prefers not to talk to anyone,A. Jane is too busy working,no,29.62,,,,,,,,,,,,,0,14,14,14,,,,,,,,,982.270036167,,,,,,,,,,,,,,,983.253480542,983.302295834,983.293140834,1012.9058654590001,1012.9244335840001,1012.946694209,1013.2162210839999,1013.2162210839999,1015.209788917,1015.9579592089999,9.549999999999999,2.235871832999919,1,[0.7572670420001941],[0.7572699170000305],,,,,,,,,,,,,,,1015.958449625,1021.8367289170001,1,5.868757999999843,5.868761040999971,0,,,0,,,0,,,,,,,,,,982.264058,982.270036167,982.270036167,982.270036167,983.2532345,1,[0.9877989169999637],[0.9878017500000169],,,,,,,,,,,,,p_13,001,2024-05-15_13h50.40.639,speech_rate,2023.2.3,None,2024-05-15 13h51.08.347568 -0700,
,Someday_11_condition-2x.wav,Someday__Someday__Maybe__Unabridged___File_008_of_116_3.wav,Hello Yes hi Dad I said Franny this is your father Dad I know How did you know it was me I told you we have caller ID now Is it curable Dad it's that thing where your number comes up when you call What a horrible invention Why would anyone want that So you know who's calling before you pick up Why don't you just say hello who's calling Dad what's up I have an audition To the point then Your Aunt Mary Ellen wanted me to remind you to book a room for Katie's wedding,What does the narrator's father want them to do regarding Katie's wedding?,A. Attend the rehearsal dinner,B. Book a room for the wedding,C. Be a bridesmaid,D. Decline the wedding invitation,B. Book a room for the wedding,no,14.72,,,,,,,,,,,,,0,15,15,15,,,,,,,,,1021.8498842920001,,,,,,,,,,,,,,,1023.518384084,1023.5334366256666,1023.536787792,1038.251215959,1038.257441417,1038.279685292,1038.487420959,1038.487420959,1041.889170584,1043.703907917,9.191666666666666,3.5850071250001747,1,[1.8241153339999983],[1.824117792000152],,,,,,,,,,,,,,,1043.704348917,1049.4507035,0,,,1,5.737056290999817,5.737058832999992,0,,,0,,,,,,,,,,1021.837302417,1021.8498842920001,1021.8498842920001,1021.8498842920001,1023.5181171250001,1,[1.6786736250001013],[1.6786766250002074],,,,,,,,,,,,,p_13,001,2024-05-15_13h50.40.639,speech_rate,2023.2.3,None,2024-05-15 13h51.08.347568 -0700,
,Someday_18_condition-3x.wav,Someday__Someday__Maybe__Unabridged___File_011_of_116_1.wav,The D train between Brooklyn and Manhattan is one of my favorite lines because at one the train emerges from underground and goes high over the river along the Manhattan Bridge Sometimes I put on my headphones and listen to music Sometimes I do the New York Times crossword puzzle And sometimes I read But no matter what else I'm doing I consider it very bad luck if I forget to look up as the train crosses over the East River even just for a second before it goes back underground It's just a superstition,Why does the narrator always look up when the D train crosses the East River?,A. To enjoy the view,B. To avoid bad luck,C. To read the subway signs,D. To see if it's raining,B. To avoid bad luck,yes,10.53375,,,,,,,,,,,,,0,16,16,16,0,0,0,0,0,0,0,0,1077.899527084,,,,,,,,,,,,,,,1062.403390667,1062.4188417916666,1062.4190585000001,1072.942795459,1072.955111584,1072.966350542,1073.170556125,1073.170556125,1075.341689042,1075.91015575,9.341666666666667,2.35062466699992,1,[0.5778681250001227],[0.5778705420000279],,,,,,,1077.888227375,1077.899527084,1077.899527084,1107.887781459,The narrator's favorite line is the D train because it crosses over the East river. Sometimes she'll listen to music or do a nyt crossword puzzle but always has to loo,0,,,,,,,,,,,,,,,,,,,,,,,,1049.451157584,1049.457269667,1049.457269667,1049.457269667,1062.403115917,1,[12.950530916999924],[12.950533833999998],1075.910681417,1075.918728709,1077.887377042,1,[1.9761837080000078],[1.976186541000061],,,,,,,p_13,001,2024-05-15_13h50.40.639,speech_rate,2023.2.3,None,2024-05-15 13h51.08.347568 -0700,
,Someday_18_condition-3x.wav,Someday__Someday__Maybe__Unabridged___File_011_of_116_1.wav,The D train between Brooklyn and Manhattan is one of my favorite lines because at one the train emerges from underground and goes high over the river along the Manhattan Bridge Sometimes I put on my headphones and listen to music Sometimes I do the New York Times crossword puzzle And sometimes I read But no matter what else I'm doing I consider it very bad luck if I forget to look up as the train crosses over the East River even just for a second before it goes back underground It's just a superstition,Why does the narrator always look up when the D train crosses the East River?,A. To enjoy the view,B. To avoid bad luck,C. To read the subway signs,D. To see if it's raining,B. To avoid bad luck,yes,10.53375,,,,,,,,,,,,,0,16,16,16,0,0,0,0,,,,,,,,,,,,,,,,,,,,,,,,,,,,,,,,,,,,,,,,,,,,,,,,,,,,,,,,,,,,,,,,,,,,,,,,,,,,,,,,,,,,,,,,,,p_13,001,2024-05-15_13h50.40.639,speech_rate,2023.2.3,None,2024-05-15 13h51.08.347568 -0700,
,Someday_18_condition-3x.wav,Someday__Someday__Maybe__Unabridged___File_011_of_116_1.wav,The D train between Brooklyn and Manhattan is one of my favorite lines because at one the train emerges from underground and goes high over the river along the Manhattan Bridge Sometimes I put on my headphones and listen to music Sometimes I do the New York Times crossword puzzle And sometimes I read But no matter what else I'm doing I consider it very bad luck if I forget to look up as the train crosses over the East River even just for a second before it goes back underground It's just a superstition,Why does the narrator always look up when the D train crosses the East River?,A. To enjoy the view,B. To avoid bad luck,C. To read the subway signs,D. To see if it's raining,B. To avoid bad luck,yes,10.53375,,,,,,,,,,,,,0,16,16,16,,,,,,,,,,,,,,,,,,,,,,,,,,,,,,,,,,,,,,,,,,,,,,,,,,,,,1107.888125625,1115.025389209,0,,,1,7.127693417000046,7.127696333000131,0,,,0,,,,,,,,,,,,,,,,,,,,,,,,,,,,,,p_13,001,2024-05-15_13h50.40.639,speech_rate,2023.2.3,None,2024-05-15 13h51.08.347568 -0700,
,Someday_34_condition-4x.wav,Someday__Someday__Maybe__Unabridged___File_019_of_116_2.wav,Who falls on stage wearing nothing but a bathrobe Why Why Why Why The monologue was going so well too or at least I think it was I'm not sure of anything now The audience seemed to be laughing in all the right places That's actually what threw me I think Their laughter threw my whole rhythm off having to wait until it died down before I could continue But still it was all okay until I tried to sit down The stage was just so dark and the lights were in my eyes,What disrupted the narrator's monologue performance?,A. The audience's laughter,B. The noise from the backstage,C. The unexpected props,D. The malfunctioning lights,A. The audience's laughter,no,7.5425,,,,,,,,,,,,,0,17,17,17,,,,,,,,,1115.038487167,,,,,,,,,,,,,,,1117.589886167,1117.6053697506666,1117.603359917,1125.146445667,1125.149599084,1125.160804667,1125.430999542,1125.430999542,1127.506267959,1128.202526417,3.591666666666667,2.320309875000021,1,[0.7055228330000318],[0.705525666000085],,,,,,,,,,,,,,,1128.202979,1136.317277542,0,,,1,8.105853916999877,8.10585712499983,0,,,0,,,,,,,,,,1115.025993042,1115.038487167,1115.038487167,1115.038487167,1117.5896453340001,1,[2.561836584000048],[2.561839417000101],,,,,,,,,,,,,p_13,001,2024-05-15_13h50.40.639,speech_rate,2023.2.3,None,2024-05-15 13h51.08.347568 -0700,
,Someday_36_condition-2x.wav,Someday__Someday__Maybe__Unabridged___File_020_of_116_1.wav,Everyone already knows everyone knows I fell they saw everything I'm humiliated What's that I say trying to buy myself some time to figure out how to respond with dignity nice class I said huh Right Everyone seems to be doing well tonight Oh Right Yes they do Did you by any chance see my monologue No sorry but I heard part of it on the monitor sound like you really went for it Oh Thanks Yes I do think I went for it,How does the narrator feel after the monologue?,A. She is humiliated,B. She is satisfied,C. She is happy,D. She is moved by it,A. She is humiliated,no,14.915,,,,,,,,,,,,,0,18,18,18,,,,,,,,,1136.3240270420001,,,,,,,,,,,,,,,1137.276017,1137.3065121253333,1137.29533325,1152.21414925,1152.226729959,1152.237953792,1152.441545542,1152.441545542,1154.117453917,1156.242384417,8.033333333333333,3.5092115840000133,1,[2.13398145799988],[2.1339842079999016],,,,,,,,,,,,,,,1156.242817917,1158.151263542,1,1.9001980000000458,1.9002007500000673,0,,,0,,,0,,,,,,,,,,1136.317805834,1136.3240270420001,1136.3240270420001,1136.3240270420001,1137.275741084,1,[0.9557626670000445],[0.9557655420001083],,,,,,,,,,,,,p_13,001,2024-05-15_13h50.40.639,speech_rate,2023.2.3,None,2024-05-15 13h51.08.347568 -0700,
,Someday_115_condition-3x.wav,Someday__Someday__Maybe__Unabridged___File_051_of_116_2.wav,All those people can't just be walking around starving and happening to look great all the time They must know something that the rest of us don't Or worse maybe there isn't a trick Maybe they are walking around hungry all the time Maybe that's the difference between being successful or unsuccessful Maybe I'm too weak I'm too concerned with feeling good to be willing to feel as bad as I should to be successful Why would feeling good be bad People spend their lives trying to feel good You're not supposed to walk around miserable all the time,What is the narrator's concern about the successful people she sees?,A. They are always happy,B. They are always starving themselves,C. They know a secret for good acting,D. They are too weak to succeed,B. They are always starving themselves,no,11.0775,,,,,,,,,,,,,0,19,19,19,,,,,,,,,1158.159379709,,,,,,,,,,,,,,,1159.865317584,1159.8812375416667,1159.8818725840001,1170.958734459,1170.961258417,1170.972473875,1171.175524542,1171.175524542,1172.769641875,1173.271922542,4.791666666666666,1.7668447500000184,1,[0.5124710420000156],[0.512474167000164],,,,,,,,,,,,,,,1173.272368959,1178.360063084,1,5.0783359590000146,5.07833874999983,0,,,0,,,0,,,,,,,,,,1158.15175475,1158.159379709,1158.159379709,1158.159379709,1159.8651265,1,[1.711754916000018],[1.7117631660000825],,,,,,,,,,,,,p_13,001,2024-05-15_13h50.40.639,speech_rate,2023.2.3,None,2024-05-15 13h51.08.347568 -0700,
,Someday_69_condition-4x.wav,Someday__Someday__Maybe__Unabridged___File_033_of_116_3.wav,Mmm let me see Carol puts on the glasses that hang on a chain around her neck and brings her face just inches from mine I hold very still as if I'm being examined in a doctor's office Well you have some freckles it's true I don't think they're distracting though I don't see them as a problem but I can even out your skin tone if that's what concerns you Carol sighs I don't think she likes me Okay great whatever you think thanks Want a magazine,What does Carol suggest to the main character regarding her freckles?,A. Cover them up with makeup,B. Embrace them as unique,C. Remove them with a cream,D. Get freckle tattoos,A. Cover them up with makeup,yes,7.3925,,,,,,,,,,,,,0,20,20,20,0,0,0,0,0,0,0,0,1193.7389635,,,,,,,,,,,,,,,1179.442799042,1179.4584189586667,1179.456198459,1186.850400875,1186.851981209,1186.8632055,1187.067293584,1187.067293584,1188.8087627090001,1190.778792667,1,1.9173061250000956,1,[1.9835643750000145],[1.983566916999962],,,,,,,1193.727594709,1193.7389635,1193.7389635,1194.318007709,,1,[0.5871202499999981],[0.5871235839999827],,,,,,,,,,,,,,,,,,,,,,1178.360598542,1178.367760417,1178.367760417,1178.367760417,1179.442577375,1,[1.0799976249998053],[1.0800003329998162],1190.779298792,1190.7923163340001,1193.726989917,1,[2.9469097090000105],[2.9469271670000126],,,,,,,p_13,001,2024-05-15_13h50.40.639,speech_rate,2023.2.3,None,2024-05-15 13h51.08.347568 -0700,
,Someday_69_condition-4x.wav,Someday__Someday__Maybe__Unabridged___File_033_of_116_3.wav,Mmm let me see Carol puts on the glasses that hang on a chain around her neck and brings her face just inches from mine I hold very still as if I'm being examined in a doctor's office Well you have some freckles it's true I don't think they're distracting though I don't see them as a problem but I can even out your skin tone if that's what concerns you Carol sighs I don't think she likes me Okay great whatever you think thanks Want a magazine,What does Carol suggest to the main character regarding her freckles?,A. Cover them up with makeup,B. Embrace them as unique,C. Remove them with a cream,D. Get freckle tattoos,A. Cover them up with makeup,yes,7.3925,,,,,,,,,,,,,0,20,20,20,0,0,0,0,,,,,,,,,,,,,,,,,,,,,,,,,,,,,,,,,,,,,,,,,,,,,,,,,,,,,,,,,,,,,,,,,,,,,,,,,,,,,,,,,,,,,,,,,,p_13,001,2024-05-15_13h50.40.639,speech_rate,2023.2.3,None,2024-05-15 13h51.08.347568 -0700,
,Someday_69_condition-4x.wav,Someday__Someday__Maybe__Unabridged___File_033_of_116_3.wav,Mmm let me see Carol puts on the glasses that hang on a chain around her neck and brings her face just inches from mine I hold very still as if I'm being examined in a doctor's office Well you have some freckles it's true I don't think they're distracting though I don't see them as a problem but I can even out your skin tone if that's what concerns you Carol sighs I don't think she likes me Okay great whatever you think thanks Want a magazine,What does Carol suggest to the main character regarding her freckles?,A. Cover them up with makeup,B. Embrace them as unique,C. Remove them with a cream,D. Get freckle tattoos,A. Cover them up with makeup,yes,7.3925,,,,,,,,,,,,,0,20,20,20,,,,,,,,,,,,,,,,,,,,,,,,,,,,,,,,,,,,,,,,,,,,,,,,,,,,,1194.3184443750001,1199.854178667,0,,,1,5.525809041000002,5.525812207999934,0,,,0,,,,,,,,,,,,,,,,,,,,,,,,,,,,,,p_13,001,2024-05-15_13h50.40.639,speech_rate,2023.2.3,None,2024-05-15 13h51.08.347568 -0700,
,Someday_119_condition-2x.wav,Someday__Someday__Maybe__Unabridged___File_053_of_116_1.wav,But when did you start doing this I didn't see any of it in the fridge Yeah no that's the best part You don't have to refrigerate it It comes in a box It's freeze dried in a package and you just take it out and soak it You soak it It sounds weird I know but it's actually very convenient because you can take it anywhere you know on the go Why can't you just eat actual healthy food the kind that doesn't require soaking Well obviously because I can't be trusted to control myself This teaches you portion control,Why does the narrator prefer soaked food?,A. Because it helps with portion control,B. Because it tastes good,C. Becauseit is cheap,D. Because the friend likes it,A. Because it helps with portion control,no,14.345,,,,,,,,,,,,,0,21,21,21,,,,,,,,,1199.862084042,,,,,,,,,,,,,,,1201.030272584,1201.0603039173334,1201.04942025,1215.383238959,1215.413393625,1215.4246255,1215.629198,1215.629198,1217.076987292,1218.429276209,9.333333333333334,1.6239410420000695,1,[1.3648544589998437],[1.3648569999998017],,,,,,,,,,,,,,,1218.429756125,1222.130081167,1,3.6918213750000177,3.6918241660000604,0,,,0,,,0,,,,,,,,,,1199.854767334,1199.862084042,1199.862084042,1199.862084042,1201.029999709,1,[1.1733956670000225],[1.1734005840000918],,,,,,,,,,,,,p_13,001,2024-05-15_13h50.40.639,speech_rate,2023.2.3,None,2024-05-15 13h51.08.347568 -0700,
,Someday_96_condition-4x.wav,Someday__Someday__Maybe__Unabridged___File_042_of_116_0.wav,My point is about the competitive thing I've always naturally made everything a competition in a way so I already know I'm tough and it actually comes sort of easily to me And I'm not afraid to be hurt or rejected because I have naturally low self esteem anyway So I always expect the worst which is weird because I also have a vision for myself where I can totally picture succeeding well almost totally on a good day And I'm quick and I'm sure that whatever I don't know yet I can learn quickly because I'm quick which I know I just said because I'm quick Ha ha get it,How does the narrator feel about competition and their ability to succeed?,A. She is afraid of competition,B. She is quick to learn and not afraid of failure,C. She has low self-esteem and avoids competition,D. She believes in the concept of competition,B. She is quick to learn and not afraid of failure,no,7.12,,,,,,,,,,,,,0,22,22,22,,,,,,,,,1222.1445020840001,,,,,,,,,,,,,,,1223.584041542,1223.5999770836668,1223.59703225,1230.728908334,1230.731377,1230.742606125,1230.945301792,1230.945301792,1232.299264625,1232.848466375,1,1.5329781670000102,1,[0.5578956669999116],[0.5578982919998907],,,,,,,,,,,,,,,1232.848888,1241.313632459,0,,,1,8.454357874999914,8.454360791,0,,,0,,,,,,,,,,1222.130618,1222.1445020840001,1222.1445020840001,1222.1445020840001,1223.583843209,1,[1.4516719999999168],[1.4516748749999806],,,,,,,,,,,,,p_13,001,2024-05-15_13h50.40.639,speech_rate,2023.2.3,None,2024-05-15 13h51.08.347568 -0700,
,Someday_5_condition-4x.wav,Someday__Someday__Maybe__Unabridged___File_005_of_116_4.wav,I am late Frank is the neighbor whose apartment we can see into from the windows in the back of our brownstone Frank leads a mysterious solitary life but one you can set a clock by He rises at eight sits in front of a computer from nine to one goes out and gets a sandwich is back at the computer from two until six thirty is gone from six thirty to eight and then watches TV from eight until eleven p m after which he goes promptly to sleep The schedule never changes No one ever comes over,"Who is Frank, and what is his daily routine?","A. Frank is the narrator's neighbor, and he works from home.","B. Frank is the narrator's roommate, and he works from home.","C. Frank is the narrator's friend, and he enjoys watching TV all day.","D. Frank is the narrator's landlord, and he travels frequently.","A. Frank is the narrator's neighbor, and he works from home.",yes,7.4425,,,,,,,,,,,,,0,23,23,23,0,0,0,0,0,0,0,0,1254.248307417,,,,,,,,,,,,,,,1242.153017209,1242.1689901256666,1242.164818875,1249.613307917,1249.615595042,1249.626348167,1249.829302375,1249.829302375,1252.3014965,1252.847778959,3.9083333333333337,2.6504934999998113,1,[0.5553780829998232],[0.5553807909998341],,,,,,,1254.237334417,1254.248307417,1254.248307417,1272.022915459,Someone is quick to wake from 8-9 pm but is mysterious and nobody ever sees him,1,[17.78244133299995],[17.782444541999894],,,,,,,,,,,,,,,,,,,,,,1241.314267417,1241.3205580420001,1241.3205580420001,1241.3205580420001,1242.152835334,1,[0.8380705839999791],[0.8380733749997944],1252.848247042,1252.853205959,1254.23637675,1,[1.3876113329999953],[1.3876142910000908],,,,,,,p_13,001,2024-05-15_13h50.40.639,speech_rate,2023.2.3,None,2024-05-15 13h51.08.347568 -0700,
,Someday_5_condition-4x.wav,Someday__Someday__Maybe__Unabridged___File_005_of_116_4.wav,I am late Frank is the neighbor whose apartment we can see into from the windows in the back of our brownstone Frank leads a mysterious solitary life but one you can set a clock by He rises at eight sits in front of a computer from nine to one goes out and gets a sandwich is back at the computer from two until six thirty is gone from six thirty to eight and then watches TV from eight until eleven p m after which he goes promptly to sleep The schedule never changes No one ever comes over,"Who is Frank, and what is his daily routine?","A. Frank is the narrator's neighbor, and he works from home.","B. Frank is the narrator's roommate, and he works from home.","C. Frank is the narrator's friend, and he enjoys watching TV all day.","D. Frank is the narrator's landlord, and he travels frequently.","A. Frank is the narrator's neighbor, and he works from home.",yes,7.4425,,,,,,,,,,,,,0,23,23,23,0,0,0,0,,,,,,,,,,,,,,,,,,,,,,,,,,,,,,,,,,,,,,,,,,,,,,,,,,,,,,,,,,,,,,,,,,,,,,,,,,,,,,,,,,,,,,,,,,p_13,001,2024-05-15_13h50.40.639,speech_rate,2023.2.3,None,2024-05-15 13h51.08.347568 -0700,
,Someday_5_condition-4x.wav,Someday__Someday__Maybe__Unabridged___File_005_of_116_4.wav,I am late Frank is the neighbor whose apartment we can see into from the windows in the back of our brownstone Frank leads a mysterious solitary life but one you can set a clock by He rises at eight sits in front of a computer from nine to one goes out and gets a sandwich is back at the computer from two until six thirty is gone from six thirty to eight and then watches TV from eight until eleven p m after which he goes promptly to sleep The schedule never changes No one ever comes over,"Who is Frank, and what is his daily routine?","A. Frank is the narrator's neighbor, and he works from home.","B. Frank is the narrator's roommate, and he works from home.","C. Frank is the narrator's friend, and he enjoys watching TV all day.","D. Frank is the narrator's landlord, and he travels frequently.","A. Frank is the narrator's neighbor, and he works from home.",yes,7.4425,,,,,,,,,,,,,0,23,23,23,,,,,,,,,,,,,,,,,,,,,,,,,,,,,,,,,,,,,,,,,,,,,,,,,,,,,1272.023382542,1281.467644,1,9.432159749999983,9.43216991700001,0,,,0,,,0,,,,,,,,,,,,,,,,,,,,,,,,,,,,,,p_13,001,2024-05-15_13h50.40.639,speech_rate,2023.2.3,None,2024-05-15 13h51.08.347568 -0700,
,Someday_59_condition-5x.wav,Someday__Someday__Maybe__Unabridged___File_028_of_116_1.wav,It's all sort of a a vacuum isn't it Yes it can be I guess Everett isn't saying anything I haven't thought before but there's something so depressing in her description Something less than comforting in her attempt to be understanding in My work ever it says in mergers and amalgamations We're seeing a real boom Lbo's are still the cornerstone of the business obviously but the increase in global capital flows is translating to even more revenue,What does Everett's description sound like to the narrator?,A. Comforting,B. Understanding,C. Concerned,D. Depressing,D. Depressing,no,5.998,,,,,,,,,,,,,0,24,24,24,,,,,,,,,1281.481182459,,,,,,,,,,,,,,,1282.932814542,1282.9481712916668,1282.9440092500001,1288.948954334,1288.95139075,1288.96258925,1289.2072705,1289.2072705,1290.480951125,1291.13310875,1,1.4905358339999566,1,[0.6646082500001285],[0.664610833000097],,,,,,,,,,,,,,,1291.133537625,1293.932992792,0,,,1,2.7913107079998554,2.791313915999808,0,,,0,,,,,,,,,,1281.468208917,1281.481182459,1281.481182459,1281.481182459,1282.9325495,1,[1.4627037909999672],[1.4627068750000944],,,,,,,,,,,,,p_13,001,2024-05-15_13h50.40.639,speech_rate,2023.2.3,None,2024-05-15 13h51.08.347568 -0700,
,Someday_97_condition-5x.wav,Someday__Someday__Maybe__Unabridged___File_043_of_116_0.wav,Yes Aren't you going to ask me about my show What Yes I'm sorry tell me Well I'm pretty excited actually I just got booked to do my one man show Insights in the basement of Hooligans Hooligans that's great Where is that again You know the Irish bar on Second Avenue it has the basement where Claudia did her poetry reading Oh yeah that Hooligans yeah such a great space,Where will the one-man show be performed?,A. In a theater on Broadway,B. In the basement of an Irish bar,C. At Claudia's poetry reading,D. In a small town in Connecticut,B. In the basement of an Irish bar,yes,5.76,,,,,,,,,,,,,0,25,25,25,0,0,0,0,0,0,0,0,1304.819282,,,,,,,,,,,,,,,1295.100034584,1295.1155333756667,1295.112263084,1300.870494459,1300.881257167,1300.891826042,1301.099744167,1301.099744167,1302.565151042,1303.101299709,2.05,1.645706958000119,1,[0.5487601659999655],[0.5487630000000081],,,,,,,1304.8085961670001,1304.819282,1304.819282,1320.6845982500001,Someone is asking the narrator about her show and whether she's seen it. The narrator says "Great!",1,[15.87273458300001],[15.872738125000069],,,,,,,,,,,,,,,,,,,,,,1293.933514042,1293.940041417,1293.940041417,1293.940041417,1295.099808417,1,[1.1647241670000312],[1.1647271670001373],1303.101880917,1303.10696825,1304.807960167,1,[1.7054916659999435],[1.7054944579999756],,,,,,,p_13,001,2024-05-15_13h50.40.639,speech_rate,2023.2.3,None,2024-05-15 13h51.08.347568 -0700,
,Someday_97_condition-5x.wav,Someday__Someday__Maybe__Unabridged___File_043_of_116_0.wav,Yes Aren't you going to ask me about my show What Yes I'm sorry tell me Well I'm pretty excited actually I just got booked to do my one man show Insights in the basement of Hooligans Hooligans that's great Where is that again You know the Irish bar on Second Avenue it has the basement where Claudia did her poetry reading Oh yeah that Hooligans yeah such a great space,Where will the one-man show be performed?,A. In a theater on Broadway,B. In the basement of an Irish bar,C. At Claudia's poetry reading,D. In a small town in Connecticut,B. In the basement of an Irish bar,yes,5.76,,,,,,,,,,,,,0,25,25,25,0,0,0,0,,,,,,,,,,,,,,,,,,,,,,,,,,,,,,,,,,,,,,,,,,,,,,,,,,,,,,,,,,,,,,,,,,,,,,,,,,,,,,,,,,,,,,,,,,p_13,001,2024-05-15_13h50.40.639,speech_rate,2023.2.3,None,2024-05-15 13h51.08.347568 -0700,
,Someday_97_condition-5x.wav,Someday__Someday__Maybe__Unabridged___File_043_of_116_0.wav,Yes Aren't you going to ask me about my show What Yes I'm sorry tell me Well I'm pretty excited actually I just got booked to do my one man show Insights in the basement of Hooligans Hooligans that's great Where is that again You know the Irish bar on Second Avenue it has the basement where Claudia did her poetry reading Oh yeah that Hooligans yeah such a great space,Where will the one-man show be performed?,A. In a theater on Broadway,B. In the basement of an Irish bar,C. At Claudia's poetry reading,D. In a small town in Connecticut,B. In the basement of an Irish bar,yes,5.76,,,,,,,,,,,,,0,25,25,25,,,,,,,,,,,,,,,,,,,,,,,,,,,,,,,,,,,,,,,,,,,,,,,,,,,,,1320.6850515840001,1327.351376875,0,,,1,6.655898999999863,6.655902416999879,0,,,0,,,,,,,,,,,,,,,,,,,,,,,,,,,,,,p_13,001,2024-05-15_13h50.40.639,speech_rate,2023.2.3,None,2024-05-15 13h51.08.347568 -0700,
,Someday_76_condition.wav,Someday__Someday__Maybe__Unabridged___File_035_of_116_4.wav,You're kidding No dear I'm a sucker for a klutz It's where you see what someone is made of My father the great Broadway director Irving Sparks always said anyone can smile on their best day I like to meet a man who can smile on his worst I was his assistant as a younger man just 19 years old sitting in the very last row in the audience of Best Foot Forward when a redheaded chorus girl took a terrible spill,Why was Barney Sparks' father's occupation?,A. He was a doctor,B. He was an actor,C. He was a Broadway director,D. He was an accountant,C. He was a Broadway director,yes,26.16,,,,,,,,,,,,,0,26,26,26,0,0,0,0,0,0,0,0,1360.979788542,,,,,,,,,,,,,,,1328.941575084,1328.9737134583333,1328.974347959,1355.135980417,1355.138541917,1355.160829209,1355.404122375,1355.404122375,1357.853241584,1358.564950292,9.566666666666666,2.6678987909999705,1,[0.7210100830000101],[0.7210124579999047],,,,,,,1360.970416834,1360.979788542,1360.979788542,1390.970756375,"The man says he likes a klutz, that his dad was a famous director, and that he said anybody could smile on their best day but who could on their w",0,,,,,,,,,,,,,,,,,,,,,,,,1327.35189275,1327.35894275,1327.35894275,1327.35894275,1328.941343334,1,[1.5878180409999914],[1.5878209579998384],1358.565472084,1358.570152,1360.969801834,1,[2.4037973340000462],[2.403800042000057],,,,,,,p_13,001,2024-05-15_13h50.40.639,speech_rate,2023.2.3,None,2024-05-15 13h51.08.347568 -0700,
,Someday_76_condition.wav,Someday__Someday__Maybe__Unabridged___File_035_of_116_4.wav,You're kidding No dear I'm a sucker for a klutz It's where you see what someone is made of My father the great Broadway director Irving Sparks always said anyone can smile on their best day I like to meet a man who can smile on his worst I was his assistant as a younger man just 19 years old sitting in the very last row in the audience of Best Foot Forward when a redheaded chorus girl took a terrible spill,Why was Barney Sparks' father's occupation?,A. He was a doctor,B. He was an actor,C. He was a Broadway director,D. He was an accountant,C. He was a Broadway director,yes,26.16,,,,,,,,,,,,,0,26,26,26,0,0,0,0,,,,,,,,,,,,,,,,,,,,,,,,,,,,,,,,,,,,,,,,,,,,,,,,,,,,,,,,,,,,,,,,,,,,,,,,,,,,,,,,,,,,,,,,,,p_13,001,2024-05-15_13h50.40.639,speech_rate,2023.2.3,None,2024-05-15 13h51.08.347568 -0700,
,Someday_76_condition.wav,Someday__Someday__Maybe__Unabridged___File_035_of_116_4.wav,You're kidding No dear I'm a sucker for a klutz It's where you see what someone is made of My father the great Broadway director Irving Sparks always said anyone can smile on their best day I like to meet a man who can smile on his worst I was his assistant as a younger man just 19 years old sitting in the very last row in the audience of Best Foot Forward when a redheaded chorus girl took a terrible spill,Why was Barney Sparks' father's occupation?,A. He was a doctor,B. He was an actor,C. He was a Broadway director,D. He was an accountant,C. He was a Broadway director,yes,26.16,,,,,,,,,,,,,0,26,26,26,,,,,,,,,,,,,,,,,,,,,,,,,,,,,,,,,,,,,,,,,,,,,,,,,,,,,1390.971119084,1394.905867917,0,,,0,,,1,3.925696958999879,3.925700291999874,0,,,,,,,,,,,,,,,,,,,,,,,,,,,,,,p_13,001,2024-05-15_13h50.40.639,speech_rate,2023.2.3,None,2024-05-15 13h51.08.347568 -0700,
,Someday_7_condition-4x.wav,Someday__Someday__Maybe__Unabridged___File_007_of_116_0.wav,You start out with a three year goal which then becomes a five year goal and before you know it you're still calling yourself an actor but most days you're being assigned a locker outside the cafeteria of the General Electric building so you can change into a borrowed pink polyester lunch lady uniform and serve lukewarm lasagna to a bunch of businessmen who call you excuse me I've made some progress but not enough to tell me for sure that I'm doing the right thing with my life It took most of the first year just to get the coveted waitressing job at the comedy club,What endeavor consumed most of the first year for the narrator?,A. Becoming a successful actress,B. Getting a job at General Electric,C. Getting a waitressing job,D. Becoming a comedian,C. Getting a waitressing job,yes,7.2325,,,,,,,,,,,,,0,27,27,27,0,0,0,0,0,0,0,0,1408.423733959,,,,,,,,,,,,,,,1396.272645584,1396.2880579166667,1396.286737084,1403.521725459,1403.523899542,1403.534718167,1403.8044561250001,1403.8044561250001,1405.139876834,1407.639947375,1.4749999999999999,1.580331957999988,1,[2.5093748750000486],[2.509377500000028],,,,,,,1408.412941125,1408.423733959,1408.423733959,1420.26501825,Somebody said "Excuse me" and something about a club,1,[11.84878075000006],[11.848784042000034],,,,,,,,,,,,,,,,,,,,,,1394.906421042,1394.913803292,1394.913803292,1394.913803292,1396.272383209,1,[1.364051333000134],[1.3640541669999493],1407.6404944170001,1407.654631209,1408.41214075,1,[0.7710792079999464],[0.7710819999999785],,,,,,,p_13,001,2024-05-15_13h50.40.639,speech_rate,2023.2.3,None,2024-05-15 13h51.08.347568 -0700,
,Someday_7_condition-4x.wav,Someday__Someday__Maybe__Unabridged___File_007_of_116_0.wav,You start out with a three year goal which then becomes a five year goal and before you know it you're still calling yourself an actor but most days you're being assigned a locker outside the cafeteria of the General Electric building so you can change into a borrowed pink polyester lunch lady uniform and serve lukewarm lasagna to a bunch of businessmen who call you excuse me I've made some progress but not enough to tell me for sure that I'm doing the right thing with my life It took most of the first year just to get the coveted waitressing job at the comedy club,What endeavor consumed most of the first year for the narrator?,A. Becoming a successful actress,B. Getting a job at General Electric,C. Getting a waitressing job,D. Becoming a comedian,C. Getting a waitressing job,yes,7.2325,,,,,,,,,,,,,0,27,27,27,0,0,0,0,,,,,,,,,,,,,,,,,,,,,,,,,,,,,,,,,,,,,,,,,,,,,,,,,,,,,,,,,,,,,,,,,,,,,,,,,,,,,,,,,,,,,,,,,,p_13,001,2024-05-15_13h50.40.639,speech_rate,2023.2.3,None,2024-05-15 13h51.08.347568 -0700,
,Someday_7_condition-4x.wav,Someday__Someday__Maybe__Unabridged___File_007_of_116_0.wav,You start out with a three year goal which then becomes a five year goal and before you know it you're still calling yourself an actor but most days you're being assigned a locker outside the cafeteria of the General Electric building so you can change into a borrowed pink polyester lunch lady uniform and serve lukewarm lasagna to a bunch of businessmen who call you excuse me I've made some progress but not enough to tell me for sure that I'm doing the right thing with my life It took most of the first year just to get the coveted waitressing job at the comedy club,What endeavor consumed most of the first year for the narrator?,A. Becoming a successful actress,B. Getting a job at General Electric,C. Getting a waitressing job,D. Becoming a comedian,C. Getting a waitressing job,yes,7.2325,,,,,,,,,,,,,0,27,27,27,,,,,,,,,,,,,,,,,,,,,,,,,,,,,,,,,,,,,,,,,,,,,,,,,,,,,1420.2655508340001,1426.984567709,0,,,0,,,1,6.708800124999925,6.7088030419999996,0,,,,,,,,,,,,,,,,,,,,,,,,,,,,,,p_13,001,2024-05-15_13h50.40.639,speech_rate,2023.2.3,None,2024-05-15 13h51.08.347568 -0700,
,Someday_35_condition.wav,Someday__Someday__Maybe__Unabridged___File_020_of_116_0.wav,Who put that there Oh No is that what I said Yes that was it I have no idea why it doesn't even make sense Who put that there How stupid I just couldn't think of anything else They laughed though I think they laughed Maybe they gasped in horror No they definitely laughed when I said that They gasped when I fell that's what it was Was it a gasp of disgust were they merely expressing concern for my safety I can't remember,What does the narrator wonder about the audience's reaction?,A. Whether they laughed or gasped,B. Whether they cried or screamed,C. Whether they left the play,D. Whether they were distracted,A. Whether they laughed or gasped,yes,29.39996875,,,,,,,,,,,,,0,28,28,28,0,0,0,0,0,0,0,0,1463.060767667,,,,,,,,,,,,,,,1428.84066075,1428.8728078333334,1428.871388917,1458.275582042,1458.277952542,1458.29981425,1458.536404625,1458.536404625,1460.151132042,1461.255186,9.691666666666666,1.8261816249998901,1,[1.1129213750000417],[1.1129239169999892],,,,,,,1463.049392125,1463.060767667,1463.060767667,1491.178236,"The narrator is shocked she said "who put that there?", then begins to overthink about the audiences reaction and whether they laughed or gasped and whether it was to her joke or if she fell",1,[28.12543929100002],[28.12544241600017],,,,,,,,,,,,,,,,,,,,,,1426.985178292,1426.991824167,1426.991824167,1426.991824167,1428.840475375,1,[1.8547468750000462],[1.8547497080000994],1461.255718334,1461.260765584,1463.048758042,1,[1.792475708999973],[1.7924785420000262],,,,,,,p_13,001,2024-05-15_13h50.40.639,speech_rate,2023.2.3,None,2024-05-15 13h51.08.347568 -0700,
,Someday_35_condition.wav,Someday__Someday__Maybe__Unabridged___File_020_of_116_0.wav,Who put that there Oh No is that what I said Yes that was it I have no idea why it doesn't even make sense Who put that there How stupid I just couldn't think of anything else They laughed though I think they laughed Maybe they gasped in horror No they definitely laughed when I said that They gasped when I fell that's what it was Was it a gasp of disgust were they merely expressing concern for my safety I can't remember,What does the narrator wonder about the audience's reaction?,A. Whether they laughed or gasped,B. Whether they cried or screamed,C. Whether they left the play,D. Whether they were distracted,A. Whether they laughed or gasped,yes,29.39996875,,,,,,,,,,,,,0,28,28,28,0,0,0,0,,,,,,,,,,,,,,,,,,,,,,,,,,,,,,,,,,,,,,,,,,,,,,,,,,,,,,,,,,,,,,,,,,,,,,,,,,,,,,,,,,,,,,,,,,p_13,001,2024-05-15_13h50.40.639,speech_rate,2023.2.3,None,2024-05-15 13h51.08.347568 -0700,
,Someday_35_condition.wav,Someday__Someday__Maybe__Unabridged___File_020_of_116_0.wav,Who put that there Oh No is that what I said Yes that was it I have no idea why it doesn't even make sense Who put that there How stupid I just couldn't think of anything else They laughed though I think they laughed Maybe they gasped in horror No they definitely laughed when I said that They gasped when I fell that's what it was Was it a gasp of disgust were they merely expressing concern for my safety I can't remember,What does the narrator wonder about the audience's reaction?,A. Whether they laughed or gasped,B. Whether they cried or screamed,C. Whether they left the play,D. Whether they were distracted,A. Whether they laughed or gasped,yes,29.39996875,,,,,,,,,,,,,0,28,28,28,,,,,,,,,,,,,,,,,,,,,,,,,,,,,,,,,,,,,,,,,,,,,,,,,,,,,1491.178730375,1494.697798459,1,3.508765791000087,3.508768583000119,0,,,0,,,0,,,,,,,,,,,,,,,,,,,,,,,,,,,,,,p_13,001,2024-05-15_13h50.40.639,speech_rate,2023.2.3,None,2024-05-15 13h51.08.347568 -0700,
,Someday_39_condition.wav,Someday__Someday__Maybe__Unabridged___File_021_of_116_1.wav,People who are admired for holding it together are not people who are about to get agents They're people who are recovering from cancer or undergoing a murder trial And I dropped a section I add hoping he'll say he didn't notice Yeah I know but I only know because I'm obsessed with that guy's work No one will dock you for that It's not exactly a glowing review but he doesn't seem totally horrified Still he's avoiding the thing I most want to know But when I fell I mean how bad was it,What does the narrator hope the person they are talking to will say?,A. That he didn't notice the mistake,B. That he noticed the dropped section,C. That he wants to be an agent,D. That he's obsessed with the narrator's work,A. That he didn't notice the mistake,yes,29.17996875,,,,,,,,,,,,,0,29,29,29,0,0,0,0,0,0,0,0,1532.597127459,,,,,,,,,,,,,,,1497.3622835,1497.3938393753333,1497.39340175,1526.579258584,1526.581876125,1526.603644459,1526.87533475,1526.87533475,1529.244991875,1530.392116959,9.6,2.6138594999999896,1,[1.159484042000031],[1.1594866249999995],,,,,,,1532.58511675,1532.597127459,1532.597127459,1562.586386667,The narrator expresses that nobody feels bad for people unless they're going through something like cancer or homelessness. She then asks if the other person saw if ,0,,,,,,,,,,,,,,,,,,,,,,,,1494.698362875,1494.709938334,1494.709938334,1494.709938334,1497.361574375,1,[2.6614594590000706],[2.6614625839999917],1530.392670334,1530.396927084,1532.584280667,1,[2.1901015830001143],[2.1901077920001626],,,,,,,p_13,001,2024-05-15_13h50.40.639,speech_rate,2023.2.3,None,2024-05-15 13h51.08.347568 -0700,
,Someday_39_condition.wav,Someday__Someday__Maybe__Unabridged___File_021_of_116_1.wav,People who are admired for holding it together are not people who are about to get agents They're people who are recovering from cancer or undergoing a murder trial And I dropped a section I add hoping he'll say he didn't notice Yeah I know but I only know because I'm obsessed with that guy's work No one will dock you for that It's not exactly a glowing review but he doesn't seem totally horrified Still he's avoiding the thing I most want to know But when I fell I mean how bad was it,What does the narrator hope the person they are talking to will say?,A. That he didn't notice the mistake,B. That he noticed the dropped section,C. That he wants to be an agent,D. That he's obsessed with the narrator's work,A. That he didn't notice the mistake,yes,29.17996875,,,,,,,,,,,,,0,29,29,29,0,0,0,0,,,,,,,,,,,,,,,,,,,,,,,,,,,,,,,,,,,,,,,,,,,,,,,,,,,,,,,,,,,,,,,,,,,,,,,,,,,,,,,,,,,,,,,,,,p_13,001,2024-05-15_13h50.40.639,speech_rate,2023.2.3,None,2024-05-15 13h51.08.347568 -0700,
,Someday_39_condition.wav,Someday__Someday__Maybe__Unabridged___File_021_of_116_1.wav,People who are admired for holding it together are not people who are about to get agents They're people who are recovering from cancer or undergoing a murder trial And I dropped a section I add hoping he'll say he didn't notice Yeah I know but I only know because I'm obsessed with that guy's work No one will dock you for that It's not exactly a glowing review but he doesn't seem totally horrified Still he's avoiding the thing I most want to know But when I fell I mean how bad was it,What does the narrator hope the person they are talking to will say?,A. That he didn't notice the mistake,B. That he noticed the dropped section,C. That he wants to be an agent,D. That he's obsessed with the narrator's work,A. That he didn't notice the mistake,yes,29.17996875,,,,,,,,,,,,,0,29,29,29,,,,,,,,,,,,,,,,,,,,,,,,,,,,,,,,,,,,,,,,,,,,,,,,,,,,,1562.586772959,1569.56399525,1,6.966182790999937,6.9661852500000805,0,,,0,,,0,,,,,,,,,,,,,,,,,,,,,,,,,,,,,,p_13,001,2024-05-15_13h50.40.639,speech_rate,2023.2.3,None,2024-05-15 13h51.08.347568 -0700,
,Someday_10_condition.wav,Someday__Someday__Maybe__Unabridged___File_008_of_116_2.wav,I've worn this combination so many times before that today my all black outfit feels a little boring a little blah What would Jane do I think to myself and pull a chunky brown leather belt from the top shelf of the closet slinging it low around my hips Finally taking weather and product into consideration I take the top part of my hair and tie it into a small black velvet scrunchie on top of my head The phone begins to ring from its place on the landing between my room and Jane's Hi Dad,What does the narrator wear to their class after the audition?,A. A black dress,B. A white t-shirt,C. A red skirt,D. A brown leather belt,D. A brown leather belt,yes,28.93,,,,,,,,,,,,,0,30,30,30,0,0,0,0,0,0,0,0,1605.235887375,,,,,,,,,,,,,,,1570.933568667,1570.9648664173333,1570.965113667,1599.90020725,1599.902956459,1599.9241295,1600.191777792,1600.191777792,1602.693219292,1603.379830917,9.875,2.7420055420000153,1,[0.6952666249999311],[0.695269332999942],,,,,,,1605.2237325840001,1605.235887375,1605.235887375,1629.7436641670001,"The narratort's all black outfit is starting to get repetitve and boring, so she thinks what would Jane do and grabs a brown belt. Then her phone rings and it's her dad",1,[24.516386582999985],[24.516390208000075],,,,,,,,,,,,,,,,,,,,,,1569.564469834,1569.570712334,1569.570712334,1569.570712334,1570.9333187500001,1,[1.366573333000133],[1.3665762910000012],1603.380365084,1603.38518325,1605.222817959,1,[1.8400434579998546],[1.8400549169998612],,,,,,,p_13,001,2024-05-15_13h50.40.639,speech_rate,2023.2.3,None,2024-05-15 13h51.08.347568 -0700,
,Someday_10_condition.wav,Someday__Someday__Maybe__Unabridged___File_008_of_116_2.wav,I've worn this combination so many times before that today my all black outfit feels a little boring a little blah What would Jane do I think to myself and pull a chunky brown leather belt from the top shelf of the closet slinging it low around my hips Finally taking weather and product into consideration I take the top part of my hair and tie it into a small black velvet scrunchie on top of my head The phone begins to ring from its place on the landing between my room and Jane's Hi Dad,What does the narrator wear to their class after the audition?,A. A black dress,B. A white t-shirt,C. A red skirt,D. A brown leather belt,D. A brown leather belt,yes,28.93,,,,,,,,,,,,,0,30,30,30,0,0,0,0,,,,,,,,,,,,,,,,,,,,,,,,,,,,,,,,,,,,,,,,,,,,,,,,,,,,,,,,,,,,,,,,,,,,,,,,,,,,,,,,,,,,,,,,,,p_13,001,2024-05-15_13h50.40.639,speech_rate,2023.2.3,None,2024-05-15 13h51.08.347568 -0700,
,Someday_10_condition.wav,Someday__Someday__Maybe__Unabridged___File_008_of_116_2.wav,I've worn this combination so many times before that today my all black outfit feels a little boring a little blah What would Jane do I think to myself and pull a chunky brown leather belt from the top shelf of the closet slinging it low around my hips Finally taking weather and product into consideration I take the top part of my hair and tie it into a small black velvet scrunchie on top of my head The phone begins to ring from its place on the landing between my room and Jane's Hi Dad,What does the narrator wear to their class after the audition?,A. A black dress,B. A white t-shirt,C. A red skirt,D. A brown leather belt,D. A brown leather belt,yes,28.93,,,,,,,,,,,,,0,30,30,30,,,,,,,,,,,,,,,,,,,,,,,,,,,,,,,,,,,,,,,,,,,,,,,,,,,,,1629.744168334,1637.003470542,0,,,0,,,0,,,1,7.250017458000002,7.250020582999923,,,,,,,,,,,,,,,,,,,,,,,,,,,,p_13,001,2024-05-15_13h50.40.639,speech_rate,2023.2.3,None,2024-05-15 13h51.08.347568 -0700,
,Someday_21_condition-4x.wav,Someday__Someday__Maybe__Unabridged___File_013_of_116_0.wav,But I guess he was like she already has an agent at Absolute and she's got two movies in the can so like you know fine just one more beanpole to deal with This is the kind of confidence you're supposed to have as an actress I think I mean I would personally never announce that I had an agent at Absolute Artists the best agency in town or talk about movies I'd done or refer to myself as a beanpole especially loudly and in a room full of people But then again in my case none of those things are TRUE,What is the narrator's stance on sharing personal accomplishments in public?,A. The narrator believes in confidently announcing her achievements,B. The narrator prefers to keep her agent and acting achievements private,C. The narrator doesn't have a strong opinion on this,D. The narrator feels it's necessary to talk loudly about her successes to gain recognition,D. The narrator feels it's necessary to talk loudly about her successes to gain recognition,yes,7.3625,,,,,,,,,,,,,0,31,31,31,0,0,0,0,0,0,0,0,1653.6655825,,,,,,,,,,,,,,,1638.772962334,1638.7853157086668,1638.786049084,1646.142736917,1646.155497667,1646.166702667,1646.425085042,1646.425085042,1649.157704167,1650.150027292,1.3416666666666668,2.9663883749999513,1,[1.0013315409998995],[1.0013341249998575],,,,,,,1653.654094584,1653.6655825,1653.6655825,1662.694065959,,1,[9.036715834000006],[9.036718458999985],,,,,,,,,,,,,,,,,,,,,,1637.004215167,1637.011916375,1637.011916375,1637.011916375,1638.772713959,1,[1.766248583000106],[1.766260000000102],1650.150543042,1650.155597459,1653.653353417,1,[3.5021957500000553],[3.502198665999913],,,,,,,p_13,001,2024-05-15_13h50.40.639,speech_rate,2023.2.3,None,2024-05-15 13h51.08.347568 -0700,
,Someday_21_condition-4x.wav,Someday__Someday__Maybe__Unabridged___File_013_of_116_0.wav,But I guess he was like she already has an agent at Absolute and she's got two movies in the can so like you know fine just one more beanpole to deal with This is the kind of confidence you're supposed to have as an actress I think I mean I would personally never announce that I had an agent at Absolute Artists the best agency in town or talk about movies I'd done or refer to myself as a beanpole especially loudly and in a room full of people But then again in my case none of those things are TRUE,What is the narrator's stance on sharing personal accomplishments in public?,A. The narrator believes in confidently announcing her achievements,B. The narrator prefers to keep her agent and acting achievements private,C. The narrator doesn't have a strong opinion on this,D. The narrator feels it's necessary to talk loudly about her successes to gain recognition,D. The narrator feels it's necessary to talk loudly about her successes to gain recognition,yes,7.3625,,,,,,,,,,,,,0,31,31,31,0,0,0,0,,,,,,,,,,,,,,,,,,,,,,,,,,,,,,,,,,,,,,,,,,,,,,,,,,,,,,,,,,,,,,,,,,,,,,,,,,,,,,,,,,,,,,,,,,p_13,001,2024-05-15_13h50.40.639,speech_rate,2023.2.3,None,2024-05-15 13h51.08.347568 -0700,
,Someday_21_condition-4x.wav,Someday__Someday__Maybe__Unabridged___File_013_of_116_0.wav,But I guess he was like she already has an agent at Absolute and she's got two movies in the can so like you know fine just one more beanpole to deal with This is the kind of confidence you're supposed to have as an actress I think I mean I would personally never announce that I had an agent at Absolute Artists the best agency in town or talk about movies I'd done or refer to myself as a beanpole especially loudly and in a room full of people But then again in my case none of those things are TRUE,What is the narrator's stance on sharing personal accomplishments in public?,A. The narrator believes in confidently announcing her achievements,B. The narrator prefers to keep her agent and acting achievements private,C. The narrator doesn't have a strong opinion on this,D. The narrator feels it's necessary to talk loudly about her successes to gain recognition,D. The narrator feels it's necessary to talk loudly about her successes to gain recognition,yes,7.3625,,,,,,,,,,,,,0,31,31,31,,,,,,,,,,,,,,,,,,,,,,,,,,,,,,,,,,,,,,,,,,,,,,,,,,,,,1662.694418792,1674.190831209,0,,,0,,,0,,,1,11.48378379199994,11.48379141700002,,,,,,,,,,,,,,,,,,,,,,,,,,,,p_13,001,2024-05-15_13h50.40.639,speech_rate,2023.2.3,None,2024-05-15 13h51.08.347568 -0700,
