index,wav_file,old_name,segment_text,question,C1,C2,C3,C4,C_correct,summary,duration,training.thisRepN,training.thisTrialN,training.thisN,training.thisIndex,sum_true.thisRepN,sum_true.thisTrialN,sum_true.thisN,sum_true.thisIndex,dummy_loop.thisRepN,dummy_loop.thisTrialN,dummy_loop.thisN,dummy_loop.thisIndex,experiment.thisRepN,experiment.thisTrialN,experiment.thisN,experiment.thisIndex,sum_true_exp.thisRepN,sum_true_exp.thisTrialN,sum_true_exp.thisN,sum_true_exp.thisIndex,dummy_loop_exp.thisRepN,dummy_loop_exp.thisTrialN,dummy_loop_exp.thisN,dummy_loop_exp.thisIndex,thisRow.t,notes,Experimenter.started,reminder.started,Experimenter.stopped,Instructions.started,Instructions.stopped,Start_Segment_Train.started,Play_train.started,Trial_counter_train.started,text_5.started,Start_Segment_Train.stopped,Play_train.numClicks,Play_train.timesOn,Play_train.timesOff,Training_Segment.started,Experimen_audio.started,polygon.started,polygon.stopped,Training_Segment.stopped,Rating.started,slider.started,text_3.started,button_2.started,Rating.stopped,slider.response,slider.rt,button_2.numClicks,button_2.timesOn,button_2.timesOff,Start_Summary.started,text_2.started,Start_Summary.stopped,summary_button.numClicks,summary_button.timesOn,summary_button.timesOff,Summary.started,textbox.started,summary_done.started,Summary.stopped,textbox.text,summary_done.numClicks,summary_done.timesOn,summary_done.timesOff,Multiple_Choice_2.started,Multiple_Choice_2.stopped,A.numClicks,A.timesOn,A.timesOff,B.numClicks,B.timesOn,B.timesOff,C.numClicks,C.timesOn,C.timesOff,D.numClicks,D.timesOn,D.timesOff,Start_Exp.started,Start_exp.started,Start.started,Start_Exp.stopped,Start.numClicks,Start.timesOn,Start.timesOff,Start_Segment.started,Play.started,Trial_counter.started,text_6.started,Start_Segment.stopped,Play.numClicks,Play.timesOn,Play.timesOff,Start_Sum_Exp.started,text_4.started,Start_Sum_Exp.stopped,sum_button.numClicks,sum_button.timesOn,sum_button.timesOff,textbox.stopped,summary_done.stopped,Thanks.started,text_7.started,text_7.stopped,Thanks.stopped,participant,session,date,expName,psychopyVersion,frameRate,expStart,
1,Someday_trial_condition.wav,Someday__Someday__Maybe__Unabridged___File_069_of_116_3.wav,It's a gut feeling You can't nickname him He's a real person not a joke person You don't have to tell me Only a real person would try to shake hands with my best friend's foot Jane you're not explaining it right It was very romantic And thankfully our steaming bowl of bright yellow melted cheese with flecks of green chilies arrives Listen she says dipping a chip into the creamy depths You're the one with the brand new personality I'm still the same old Jane,"What does the narrator have, according to Jane?",A) A new recipe for dipping sauce,B) A new personality,C) A new restaurant suggestion,D) A new pair of shoes,B) A new personality,yes,30,0,0,0,0,0,0,0,0,0,0,0,0,,,,,,,,,,,,,393.787347916,,0.00959070800000461,0.01933004100000346,341.022626791,341.022633666,355.340816791,355.351289916,355.368196416,355.368196416,355.368196416,357.579872875,1,[2.219203166],[2.2192059160000213],357.580235708,357.628983458,357.62438466599997,387.638739125,387.60958224999996,387.63087854099996,387.840026875,387.840026875,390.46924258300004,391.41996116599995,10,2.8105169169999726,1,[0.9607408330000453],[0.9607434580000245],391.42219670799994,391.42757962499996,393.746852833,1,[2.3234685420000005],[2.323482541999965],393.74851299999995,393.787347916,393.787347916,419.64506149999994,Someone tried to shake hands with someone else's foot and there was some weird green/ red chilli sauce that they dipped a chip into and it's in New York City.,1,[25.868762750000087],[25.86876570900006],,,,,,,,,,,,,,,,,,,,,,,,,,,,,,,,,,,,,,,,,,p_14,001,2024-05-17_10h10.52.509,speech_rate,2023.2.3,None,2024-05-17 10h11.05.248154 -0700,
1,Someday_trial_condition.wav,Someday__Someday__Maybe__Unabridged___File_069_of_116_3.wav,It's a gut feeling You can't nickname him He's a real person not a joke person You don't have to tell me Only a real person would try to shake hands with my best friend's foot Jane you're not explaining it right It was very romantic And thankfully our steaming bowl of bright yellow melted cheese with flecks of green chilies arrives Listen she says dipping a chip into the creamy depths You're the one with the brand new personality I'm still the same old Jane,"What does the narrator have, according to Jane?",A) A new recipe for dipping sauce,B) A new personality,C) A new restaurant suggestion,D) A new pair of shoes,B) A new personality,yes,30,0,0,0,0,0,0,0,0,,,,,,,,,,,,,,,,,,,,,,,,,,,,,,,,,,,,,,,,,,,,,,,,,,,,,,,,,,,,,,,,,,,,,,,,,,,,,,,,,,,,,,,,,,,,,,,,,,,,,,p_14,001,2024-05-17_10h10.52.509,speech_rate,2023.2.3,None,2024-05-17 10h11.05.248154 -0700,
1,Someday_trial_condition.wav,Someday__Someday__Maybe__Unabridged___File_069_of_116_3.wav,It's a gut feeling You can't nickname him He's a real person not a joke person You don't have to tell me Only a real person would try to shake hands with my best friend's foot Jane you're not explaining it right It was very romantic And thankfully our steaming bowl of bright yellow melted cheese with flecks of green chilies arrives Listen she says dipping a chip into the creamy depths You're the one with the brand new personality I'm still the same old Jane,"What does the narrator have, according to Jane?",A) A new recipe for dipping sauce,B) A new personality,C) A new restaurant suggestion,D) A new pair of shoes,B) A new personality,yes,30,0,0,0,0,,,,,,,,,,,,,,,,,,,,,,,,,,,,,,,,,,,,,,,,,,,,,,,,,,,,,,,,,,,,,,,,,419.64554625,427.60137708300005,1,7.935439708999979,7.935441958999945,0,,,0,,,0,,,,,,,,,,,,,,,,,,,,,,,,,,,,,,p_14,001,2024-05-17_10h10.52.509,speech_rate,2023.2.3,None,2024-05-17 10h11.05.248154 -0700,
2,Someday_trial_condition-5x.wav,Someday__Someday__Maybe__Unabridged___File_103_of_116_1.wav,Isn't halfway where two people usually meet Well in general maybe But tonight this is sort of a big deal for me It's my night I'm not sure you you don't think I get it Well no I mean how could you I'm having trouble making sense of this conversation James is speaking with authority but there's something wrong Something feels so wrong somehow I don't care about waving and smiling and having my picture taken with him,"How does James speak, according to the narrator?",A) With compassion,B) With grief,C) With hesitation,D) With authority,D) With authority,yes,6.2,0,1,1,1,0,0,0,0,0,0,0,0,,,,,,,,,,,,,445.513721,,,,,,,427.602047291,427.610173333,427.610173333,427.610173333,432.56247441600004,1,[4.957276625000077],[4.957279334000077],432.56270745800003,432.5782818326666,432.57590624999995,438.78050083299996,438.761968708,438.772639416,439.02476899999994,439.02476899999994,443.25499087500003,444.344953,1.8416666666666666,4.454459665999934,1,[1.0992408330000671],[1.0992429579999907],444.34545116600003,444.34966033300003,445.501470375,1,[1.155623332999994],[1.1556264579999151],445.50204808300003,445.513721,445.513721,454.56346883299994,"Wrong",1,[9.057366000000002],[9.057368750000023],,,,,,,,,,,,,,,,,,,,,,,,,,,,,,,,,,,,,,,,,,p_14,001,2024-05-17_10h10.52.509,speech_rate,2023.2.3,None,2024-05-17 10h11.05.248154 -0700,
2,Someday_trial_condition-5x.wav,Someday__Someday__Maybe__Unabridged___File_103_of_116_1.wav,Isn't halfway where two people usually meet Well in general maybe But tonight this is sort of a big deal for me It's my night I'm not sure you you don't think I get it Well no I mean how could you I'm having trouble making sense of this conversation James is speaking with authority but there's something wrong Something feels so wrong somehow I don't care about waving and smiling and having my picture taken with him,"How does James speak, according to the narrator?",A) With compassion,B) With grief,C) With hesitation,D) With authority,D) With authority,yes,6.2,0,1,1,1,0,0,0,0,,,,,,,,,,,,,,,,,,,,,,,,,,,,,,,,,,,,,,,,,,,,,,,,,,,,,,,,,,,,,,,,,,,,,,,,,,,,,,,,,,,,,,,,,,,,,,,,,,,,,,p_14,001,2024-05-17_10h10.52.509,speech_rate,2023.2.3,None,2024-05-17 10h11.05.248154 -0700,
2,Someday_trial_condition-5x.wav,Someday__Someday__Maybe__Unabridged___File_103_of_116_1.wav,Isn't halfway where two people usually meet Well in general maybe But tonight this is sort of a big deal for me It's my night I'm not sure you you don't think I get it Well no I mean how could you I'm having trouble making sense of this conversation James is speaking with authority but there's something wrong Something feels so wrong somehow I don't care about waving and smiling and having my picture taken with him,"How does James speak, according to the narrator?",A) With compassion,B) With grief,C) With hesitation,D) With authority,D) With authority,yes,6.2,0,1,1,1,,,,,,,,,,,,,,,,,,,,,,,,,,,,,,,,,,,,,,,,,,,,,,,,,,,,,,,,,,,,,,,,,454.563920916,468.148558916,0,,,0,,,1,13.574190208000005,13.574193124999965,0,,,,,,,,,,,,,,,,,,,,,,,,,,,,,,p_14,001,2024-05-17_10h10.52.509,speech_rate,2023.2.3,None,2024-05-17 10h11.05.248154 -0700,
,Someday_21_condition-5x.wav,Someday__Someday__Maybe__Unabridged___File_013_of_116_0.wav,But I guess he was like she already has an agent at Absolute and she's got two movies in the can so like you know fine just one more beanpole to deal with This is the kind of confidence you're supposed to have as an actress I think I mean I would personally never announce that I had an agent at Absolute Artists the best agency in town or talk about movies I'd done or refer to myself as a beanpole especially loudly and in a room full of people But then again in my case none of those things are TRUE,What is the narrator's stance on sharing personal accomplishments in public?,A. The narrator believes in confidently announcing her achievements,B. The narrator prefers to keep her agent and acting achievements private,C. The narrator doesn't have a strong opinion on this,D. The narrator feels it's necessary to talk loudly about her successes to gain recognition,D. The narrator feels it's necessary to talk loudly about her successes to gain recognition,no,5.89,,,,,,,,,,,,,0,0,0,0,,,,,,,,,520.4608315830001,,,,,,,,,,,,,,,523.0582840410001,523.0736717916667,523.07046125,528.9668081250001,528.968494208,528.99082275,529.2165995,529.2165995,531.3320304580001,532.044088875,1.0,2.2990526669999554,1,[0.7371125829999983],[0.7371153330000197],,,,,,,,,,,,,,,532.044754625,535.4611852500001,1,3.403116582999928,3.4031202499999154,0,,,0,,,0,,,468.14901612499995,468.16250633299995,468.16250633299995,520.40400475,1,[52.25413154099999],[52.25413670800003],520.4498352080001,520.4608315830001,520.4608315830001,520.4608315830001,523.057872875,1,[2.6046002500000895],[2.604602833000058],,,,,,,,,,,,,p_14,001,2024-05-17_10h10.52.509,speech_rate,2023.2.3,None,2024-05-17 10h11.05.248154 -0700,
,Someday_44_condition-3x.wav,Someday__Someday__Maybe__Unabridged___File_024_of_116_0.wav,It's such a talent to be able to make people laugh but God forbid you end up on something joyless and soul crushing like that show with all the nurses Hello New York The first person I spot outside the theater is Dina smoking with a few other classmates Dina is one of the older members of our class in her 40s maybe and is still sort of famous from a show she did in the 80s called There's Pierre which I remember watching all the time growing up but she never mentions it so I don't either,What show does the narrator consider joyless and soul-crushing?,A. A show about nurses,B. A show called "Hello New York",C. A show from the 80s,D. A show with Dina,A. A show about nurses,yes,11.2275,,,,,,,,,,,,,0,1,1,1,0,0,0,0,0,0,0,0,552.0840501250001,,,,,,,,,,,,,,,536.8757790410001,536.8912962496667,536.8931265,548.117792041,548.1206121250001,548.1318270410001,548.338311208,548.338311208,549.977823791,550.6344128750001,4.016666666666667,1.8187480000000278,1,[0.6656412920000321],[0.6656434999999874],,,,,,,552.05605975,552.0840501250001,552.0840501250001,580.637031541,"Also in New York, a person talking about watching a show growing up. Something about being an actress.",1,[28.577846999999906],[28.57784983299996],,,,,,,,,,,,,,,,,,,,,,535.4622021250001,535.4694484160001,535.4694484160001,535.4694484160001,536.875571,1,[1.4118385000000444],[1.4118413749999945],550.634899291,550.6403750830001,552.05514825,1,[1.4191815829999541],[1.4191878749999205],,,,,,,p_14,001,2024-05-17_10h10.52.509,speech_rate,2023.2.3,None,2024-05-17 10h11.05.248154 -0700,
,Someday_44_condition-3x.wav,Someday__Someday__Maybe__Unabridged___File_024_of_116_0.wav,It's such a talent to be able to make people laugh but God forbid you end up on something joyless and soul crushing like that show with all the nurses Hello New York The first person I spot outside the theater is Dina smoking with a few other classmates Dina is one of the older members of our class in her 40s maybe and is still sort of famous from a show she did in the 80s called There's Pierre which I remember watching all the time growing up but she never mentions it so I don't either,What show does the narrator consider joyless and soul-crushing?,A. A show about nurses,B. A show called "Hello New York",C. A show from the 80s,D. A show with Dina,A. A show about nurses,yes,11.2275,,,,,,,,,,,,,0,1,1,1,0,0,0,0,,,,,,,,,,,,,,,,,,,,,,,,,,,,,,,,,,,,,,,,,,,,,,,,,,,,,,,,,,,,,,,,,,,,,,,,,,,,,,,,,,,,,,,,,,p_14,001,2024-05-17_10h10.52.509,speech_rate,2023.2.3,None,2024-05-17 10h11.05.248154 -0700,
,Someday_44_condition-3x.wav,Someday__Someday__Maybe__Unabridged___File_024_of_116_0.wav,It's such a talent to be able to make people laugh but God forbid you end up on something joyless and soul crushing like that show with all the nurses Hello New York The first person I spot outside the theater is Dina smoking with a few other classmates Dina is one of the older members of our class in her 40s maybe and is still sort of famous from a show she did in the 80s called There's Pierre which I remember watching all the time growing up but she never mentions it so I don't either,What show does the narrator consider joyless and soul-crushing?,A. A show about nurses,B. A show called "Hello New York",C. A show from the 80s,D. A show with Dina,A. A show about nurses,yes,11.2275,,,,,,,,,,,,,0,1,1,1,,,,,,,,,,,,,,,,,,,,,,,,,,,,,,,,,,,,,,,,,,,,,,,,,,,,,580.637467416,590.954780583,0,,,1,10.305184875000009,10.305187792000083,0,,,0,,,,,,,,,,,,,,,,,,,,,,,,,,,,,,p_14,001,2024-05-17_10h10.52.509,speech_rate,2023.2.3,None,2024-05-17 10h11.05.248154 -0700,
,Someday_58_condition.wav,Someday__Someday__Maybe__Unabridged___File_028_of_116_0.wav,Her profile is sharp her whole body a series of angles that have somehow Improbably folded themselves on their hinges into the soft chair There's something so regal and linear about her I can't imagine her ever collapsing into giggles or crying hysterically She's taking her time to consider what to say next in a way that suggests she's used to people waiting for her I wonder what that's like to never worry about filling the silence Her eyes eventually float back to me,How does the narrator describe the woman's profile?,A. Sharp,B. Round,C. Regal,D. Hysterical,A. Sharp,no,29.23003125,,,,,,,,,,,,,0,2,2,2,,,,,,,,,590.9630154580001,,,,,,,,,,,,,,,594.270922875,594.320163,594.3095081250001,623.5283212500001,623.556595666,623.5784898750001,623.8346086250001,623.8346086250001,625.72126325,626.3670466250001,9.991666666666665,2.114360832999978,1,[0.6595690000000332],[0.6595711250000704],,,,,,,,,,,,,,,626.3674684160001,629.6545663750001,0,,,0,,,1,3.2796502500000315,3.279652750000082,0,,,,,,,,,,590.955351625,590.9630154580001,590.9630154580001,590.9630154580001,594.270711666,1,[3.313652124999976],[3.3136547079999445],,,,,,,,,,,,,p_14,001,2024-05-17_10h10.52.509,speech_rate,2023.2.3,None,2024-05-17 10h11.05.248154 -0700,
,Someday_91_condition-2x.wav,Someday__Someday__Maybe__Unabridged___File_040_of_116_0.wav,Please go ahead and begin your monologue whenever you're ready We can chat afterwards Take your time His words are encouraging but his face is neutral at best And when there are two people in a room and one of them is there purely to see the other person do something the notion that that person could actually take their time seems ridiculous But I try I try to take a deep breath but the air gets sort of stuck and doesn't go all the way down to my lungs I need a minute to calm down but I can't possibly take it,What is the narrator's reaction to the suggestion to take her time?,A. She feels comforted,B. She finds it ridiculous,C. She rejects the offer,D. She chats with the agent first,B. She finds it ridiculous,yes,14.29496875,,,,,,,,,,,,,0,3,3,3,0,0,0,0,0,0,0,0,652.2232075830001,,,,,,,,,,,,,,,634.0623700000001,634.0950376663334,634.08338525,648.373531458,648.3914046250001,648.412722708,648.6149325,648.6149325,650.3346132080001,651.068401,8.0,1.8917253330000676,1,[0.7442416249999724],[0.7442437920000202],,,,,,,652.195492541,652.2232075830001,652.2232075830001,680.649578583,"Someone says to the narrator to "please take your time to begin your monologue." Then, the narrator records her inner thoughts as she prepares.",1,[28.450803208000025],[28.45080658300003],,,,,,,,,,,,,,,,,,,,,,629.655045791,629.659952125,629.659952125,629.659952125,634.062187,1,[4.406741041000032],[4.406743541000083],651.068903083,651.074004958,652.1947381660001,1,[1.1250779169999987],[1.1250926669999899],,,,,,,p_14,001,2024-05-17_10h10.52.509,speech_rate,2023.2.3,None,2024-05-17 10h11.05.248154 -0700,
,Someday_91_condition-2x.wav,Someday__Someday__Maybe__Unabridged___File_040_of_116_0.wav,Please go ahead and begin your monologue whenever you're ready We can chat afterwards Take your time His words are encouraging but his face is neutral at best And when there are two people in a room and one of them is there purely to see the other person do something the notion that that person could actually take their time seems ridiculous But I try I try to take a deep breath but the air gets sort of stuck and doesn't go all the way down to my lungs I need a minute to calm down but I can't possibly take it,What is the narrator's reaction to the suggestion to take her time?,A. She feels comforted,B. She finds it ridiculous,C. She rejects the offer,D. She chats with the agent first,B. She finds it ridiculous,yes,14.29496875,,,,,,,,,,,,,0,3,3,3,0,0,0,0,,,,,,,,,,,,,,,,,,,,,,,,,,,,,,,,,,,,,,,,,,,,,,,,,,,,,,,,,,,,,,,,,,,,,,,,,,,,,,,,,,,,,,,,,,p_14,001,2024-05-17_10h10.52.509,speech_rate,2023.2.3,None,2024-05-17 10h11.05.248154 -0700,
,Someday_91_condition-2x.wav,Someday__Someday__Maybe__Unabridged___File_040_of_116_0.wav,Please go ahead and begin your monologue whenever you're ready We can chat afterwards Take your time His words are encouraging but his face is neutral at best And when there are two people in a room and one of them is there purely to see the other person do something the notion that that person could actually take their time seems ridiculous But I try I try to take a deep breath but the air gets sort of stuck and doesn't go all the way down to my lungs I need a minute to calm down but I can't possibly take it,What is the narrator's reaction to the suggestion to take her time?,A. She feels comforted,B. She finds it ridiculous,C. She rejects the offer,D. She chats with the agent first,B. She finds it ridiculous,yes,14.29496875,,,,,,,,,,,,,0,3,3,3,,,,,,,,,,,,,,,,,,,,,,,,,,,,,,,,,,,,,,,,,,,,,,,,,,,,,680.6500379160001,704.7869718750001,0,,,1,24.127700000000004,24.127702916999965,0,,,0,,,,,,,,,,,,,,,,,,,,,,,,,,,,,,p_14,001,2024-05-17_10h10.52.509,speech_rate,2023.2.3,None,2024-05-17 10h11.05.248154 -0700,
,Someday_10_condition-4x.wav,Someday__Someday__Maybe__Unabridged___File_008_of_116_2.wav,I've worn this combination so many times before that today my all black outfit feels a little boring a little blah What would Jane do I think to myself and pull a chunky brown leather belt from the top shelf of the closet slinging it low around my hips Finally taking weather and product into consideration I take the top part of my hair and tie it into a small black velvet scrunchie on top of my head The phone begins to ring from its place on the landing between my room and Jane's Hi Dad,What does the narrator wear to their class after the audition?,A. A black dress,B. A white t-shirt,C. A red skirt,D. A brown leather belt,D. A brown leather belt,no,7.245,,,,,,,,,,,,,0,4,4,4,,,,,,,,,704.7951551660001,,,,,,,,,,,,,,,708.660635791,708.6765419166667,708.674623,715.9171916250001,715.928444708,715.9396680000001,716.200142291,716.200142291,718.331812958,718.9168309580001,1.9083333333333332,2.3681932079999797,1,[0.5940662499999689],[0.5940685829999666],,,,,,,,,,,,,,,718.9172624580001,722.534690875,1,3.609904541999981,3.6099068339999576,0,,,0,,,0,,,,,,,,,,704.787549708,704.7951551660001,704.7951551660001,704.7951551660001,708.6604325000001,1,[3.8705338330000814],[3.870537000000013],,,,,,,,,,,,,p_14,001,2024-05-17_10h10.52.509,speech_rate,2023.2.3,None,2024-05-17 10h11.05.248154 -0700,
,Someday_118_condition-5x.wav,Someday__Someday__Maybe__Unabridged___File_053_of_116_0.wav,The stuff in the bowl I am holding must look as bad as I thought Wow look at you Where'd you get the boots Maybe I can distract her by talking about fashion Don't try to distract me by talking about fashion Seriously what is that It's uh food For an astronaut No it's this wonderful new diet food I bought it off the television I've been trying to keep my spirits up by experimenting with different diets So far none of them have worked,Why does the narrator ask about the boots?,A. To distract from the topic of food,B. To compliment the fashion sense,C. To mock the appearance,D. To change the subject to fashion,A. To distract from the topic of food,yes,5.912,,,,,,,,,,,,,0,5,5,5,0,0,0,0,0,0,0,0,735.429435333,,,,,,,,,,,,,,,724.23453025,724.2500864576667,724.2462565410001,730.1510741660001,730.1637642500001,730.1746648330001,730.381837916,730.381837916,732.321705791,732.9070448330001,1.0583333333333333,2.1215054580000015,1,[0.5947569169999269],[0.5947596669999484],,,,,,,735.4176317910001,735.429435333,735.429435333,757.128706583,more Jane "Hi dad",1,[21.707772084],[21.70777499999997],,,,,,,,,,,,,,,,,,,,,,722.5351595410001,722.542203541,722.542203541,722.542203541,724.234283708,1,[1.6974331659999962],[1.6974358749999965],732.90750975,732.9117932080001,735.4164772500001,1,[2.5074387920000163],[2.507449458999986],,,,,,,p_14,001,2024-05-17_10h10.52.509,speech_rate,2023.2.3,None,2024-05-17 10h11.05.248154 -0700,
,Someday_118_condition-5x.wav,Someday__Someday__Maybe__Unabridged___File_053_of_116_0.wav,The stuff in the bowl I am holding must look as bad as I thought Wow look at you Where'd you get the boots Maybe I can distract her by talking about fashion Don't try to distract me by talking about fashion Seriously what is that It's uh food For an astronaut No it's this wonderful new diet food I bought it off the television I've been trying to keep my spirits up by experimenting with different diets So far none of them have worked,Why does the narrator ask about the boots?,A. To distract from the topic of food,B. To compliment the fashion sense,C. To mock the appearance,D. To change the subject to fashion,A. To distract from the topic of food,yes,5.912,,,,,,,,,,,,,0,5,5,5,0,0,0,0,,,,,,,,,,,,,,,,,,,,,,,,,,,,,,,,,,,,,,,,,,,,,,,,,,,,,,,,,,,,,,,,,,,,,,,,,,,,,,,,,,,,,,,,,,p_14,001,2024-05-17_10h10.52.509,speech_rate,2023.2.3,None,2024-05-17 10h11.05.248154 -0700,
,Someday_118_condition-5x.wav,Someday__Someday__Maybe__Unabridged___File_053_of_116_0.wav,The stuff in the bowl I am holding must look as bad as I thought Wow look at you Where'd you get the boots Maybe I can distract her by talking about fashion Don't try to distract me by talking about fashion Seriously what is that It's uh food For an astronaut No it's this wonderful new diet food I bought it off the television I've been trying to keep my spirits up by experimenting with different diets So far none of them have worked,Why does the narrator ask about the boots?,A. To distract from the topic of food,B. To compliment the fashion sense,C. To mock the appearance,D. To change the subject to fashion,A. To distract from the topic of food,yes,5.912,,,,,,,,,,,,,0,5,5,5,,,,,,,,,,,,,,,,,,,,,,,,,,,,,,,,,,,,,,,,,,,,,,,,,,,,,757.129141458,765.0978831250001,0,,,0,,,0,,,1,7.958996584000033,7.958999749999975,,,,,,,,,,,,,,,,,,,,,,,,,,,,p_14,001,2024-05-17_10h10.52.509,speech_rate,2023.2.3,None,2024-05-17 10h11.05.248154 -0700,
,Someday_16_condition.wav,Someday__Someday__Maybe__Unabridged___File_010_of_116_0.wav,When he tries to describe the story to me I find myself counting the planks in our floor weighing the merits of vegetable versus scallion cream cheese But I'm sure it's better than it sounds How's my hair I'm taking an apartment wide poll for some reason this time my question is accompanied by a weird sort of tap step Flourish in order to sell it I hate myself I must be stopped Big he says hopefully huh,What does the narrator do while the person describes the story to her?,A. Counts the planks in the floor,B. Weighs the merits of cream cheese,C. Dances a tap step,D. Flips her hair dramatically,A. Counts the planks in the floor,no,27.53003125,,,,,,,,,,,,,0,6,6,6,,,,,,,,,765.1067132080001,,,,,,,,,,,,,,,769.614647333,769.6466652493333,769.6439811250001,797.167688333,797.1831711250001,797.2048537500001,797.4615949580001,797.4615949580001,799.581263291,800.3160017910001,9.975,2.3486572919999844,1,[0.7477093749999995],[0.7477115000000367],,,,,,,,,,,,,,,800.3164169160001,810.890148833,1,10.564715458000023,10.564717833000032,0,,,0,,,0,,,,,,,,,,765.098448208,765.1067132080001,765.1067132080001,765.1067132080001,769.6143805830001,1,[4.513538874999995],[4.513541583000006],,,,,,,,,,,,,p_14,001,2024-05-17_10h10.52.509,speech_rate,2023.2.3,None,2024-05-17 10h11.05.248154 -0700,
,Someday_64_condition.wav,Someday__Someday__Maybe__Unabridged___File_031_of_116_0.wav,The traffic isn't too bad yet and the sun is still low in the sky I pass a few trucks parked on 72nd flanked by orange cones and signs stapled to the electrical poles that say no parking permit to film This must be the shoot my shoot A stocky girl is standing on the corner by the trucks wearing a giant fur hat with ear flaps and speaking into a walkie talkie Hi excuse me I say What is this for Mayonnaise commercial she says gruffly I'm in the wrong place,What is happening on 72nd Street?,A. A traffic jam,B. A film shoot,C. A parade,D. A protest,B. A film shoot,no,28.75996875,,,,,,,,,,,,,0,7,7,7,,,,,,,,,810.8972519160001,,,,,,,,,,,,,,,813.451041208,813.4832922083333,813.4839410000001,842.251540791,842.253682,842.275782541,842.485031958,842.485031958,843.888988666,844.5566012080001,10,1.5889638749999904,1,[0.6769223750000037],[0.6769245829999591],,,,,,,,,,,,,,,844.5570777910001,846.4002108750001,0,,,1,1.835562125000024,1.8355644170000005,0,,,0,,,,,,,,,,810.8906134580001,810.8972519160001,810.8972519160001,810.8972519160001,813.4508400000001,1,[2.5585298749999765],[2.5585325829999874],,,,,,,,,,,,,p_14,001,2024-05-17_10h10.52.509,speech_rate,2023.2.3,None,2024-05-17 10h11.05.248154 -0700,
,Someday_17_condition-5x.wav,Someday__Someday__Maybe__Unabridged___File_011_of_116_0.wav,Are you sure you won't come back with me now He asked last time as I waited with him at his gate at the airport I just not yet Okay he said and then with a wink call me when you change your mind Sometimes when the tips are bad and my feet ache I wonder why I'm putting off the inevitable I wonder why I don't just pick up the phone and move to Chicago rather than continuing to attempt something that has a less than 5 success rate,What does the narrator contemplate while dealing with the hardships of her current situation?,A. Whether to continue waiting at the airport,B. Whether to ask for better tips to ease the pain in her feet,C. Why she is delaying a significant change in her life,D. Why she isn't more successful in her current endeavors,C. Why she is delaying a significant change in her life,no,5.746,,,,,,,,,,,,,0,8,8,8,,,,,,,,,846.405606375,,,,,,,,,,,,,,,848.586541708,848.6021479996667,848.60101075,854.3518969160001,854.353983416,854.3759744160001,854.5891462080001,854.5891462080001,856.4573397080001,857.5747222910001,1.8583333333333334,2.543661000000043,1,[1.1268654169999763],[1.1268677919999845],,,,,,,,,,,,,,,857.575183625,864.68609325,0,,,1,7.100007708000021,7.100010250000082,0,,,0,,,,,,,,,,846.400661083,846.405606375,846.405606375,846.405606375,848.5863511660001,1,[2.185242541999969],[2.185245166999948],,,,,,,,,,,,,p_14,001,2024-05-17_10h10.52.509,speech_rate,2023.2.3,None,2024-05-17 10h11.05.248154 -0700,
,Someday_30_condition.wav,Someday__Someday__Maybe__Unabridged___File_017_of_116_2.wav,No he says then he pushes his bottom lip out a little Not tonight sweetheart He looks almost sorry for me as if he's canceling some sort of pre arranged date or I'm five years old and he just told me we can't go to the zoo I resent his assumption that I'm even slightly disappointed that he won't be in class tonight although the truth is I'm inexplicably crushed Me neither Yeah I'm not going to class either because it's funny but I have to pick up some scripts too actually,Why won't the narrator be at the class?,A. She has to pick up some scripts,B. She thinks the class is funny,C. She doesn't want to go to the zoo,D. She has to go to a party,A. She has to pick up some scripts,yes,28.75996875,,,,,,,,,,,,,0,9,9,9,0,0,0,0,0,0,0,0,898.816731083,,,,,,,,,,,,,,,865.7091895000001,865.7414517913334,865.7404831660001,894.4937150830001,894.5054105830001,894.5267962500001,894.728780541,894.728780541,896.338219416,897.404905041,10,1.7866502499999797,1,[1.076622417000067],[1.0766247500000645],,,,,,,898.805667791,898.816731083,898.816731083,928.8054127910001,The narrator receives the news that one of her classmates won't be going to lecture that night. The narrator thinks that she shouldn't be affected by this but actually is. She tries to play it off by making up some story about having something else to do too,0,,,,,,,,,,,,,,,,,,,,,,,,864.6866502500001,864.6939637080001,864.6939637080001,864.6939637080001,865.708951916,1,[1.0203535839999631],[1.020356291999974],897.405405541,897.4099175,898.8048211660001,1,[1.3983258750000687],[1.398353375000056],,,,,,,p_14,001,2024-05-17_10h10.52.509,speech_rate,2023.2.3,None,2024-05-17 10h11.05.248154 -0700,
,Someday_30_condition.wav,Someday__Someday__Maybe__Unabridged___File_017_of_116_2.wav,No he says then he pushes his bottom lip out a little Not tonight sweetheart He looks almost sorry for me as if he's canceling some sort of pre arranged date or I'm five years old and he just told me we can't go to the zoo I resent his assumption that I'm even slightly disappointed that he won't be in class tonight although the truth is I'm inexplicably crushed Me neither Yeah I'm not going to class either because it's funny but I have to pick up some scripts too actually,Why won't the narrator be at the class?,A. She has to pick up some scripts,B. She thinks the class is funny,C. She doesn't want to go to the zoo,D. She has to go to a party,A. She has to pick up some scripts,yes,28.75996875,,,,,,,,,,,,,0,9,9,9,0,0,0,0,,,,,,,,,,,,,,,,,,,,,,,,,,,,,,,,,,,,,,,,,,,,,,,,,,,,,,,,,,,,,,,,,,,,,,,,,,,,,,,,,,,,,,,,,,p_14,001,2024-05-17_10h10.52.509,speech_rate,2023.2.3,None,2024-05-17 10h11.05.248154 -0700,
,Someday_30_condition.wav,Someday__Someday__Maybe__Unabridged___File_017_of_116_2.wav,No he says then he pushes his bottom lip out a little Not tonight sweetheart He looks almost sorry for me as if he's canceling some sort of pre arranged date or I'm five years old and he just told me we can't go to the zoo I resent his assumption that I'm even slightly disappointed that he won't be in class tonight although the truth is I'm inexplicably crushed Me neither Yeah I'm not going to class either because it's funny but I have to pick up some scripts too actually,Why won't the narrator be at the class?,A. She has to pick up some scripts,B. She thinks the class is funny,C. She doesn't want to go to the zoo,D. She has to go to a party,A. She has to pick up some scripts,yes,28.75996875,,,,,,,,,,,,,0,9,9,9,,,,,,,,,,,,,,,,,,,,,,,,,,,,,,,,,,,,,,,,,,,,,,,,,,,,,928.805749708,933.158590833,1,4.34239212500006,4.342394666000018,0,,,0,,,0,,,,,,,,,,,,,,,,,,,,,,,,,,,,,,p_14,001,2024-05-17_10h10.52.509,speech_rate,2023.2.3,None,2024-05-17 10h11.05.248154 -0700,
,Someday_82_condition.wav,Someday__Someday__Maybe__Unabridged___File_037_of_116_3.wav,The end Huh I say baffled The end is supposed to show that he's come to terms with who he is It's supposed to show he's been healed Huh I say again I know Fellini can be abstract Dan says eyes gleaming Watch it with me from the beginning sometime I will I smile back at him noticing for the first time the flecks of green in his brown eyes The room seems too dark and quiet suddenly,What color are Dan's eyes,A. Blue with green flecks,B. Deep brown,C. Brown with green flecks,D. Dark green with brown flecks,C. Brown with green flecks,yes,31.15996875,,,,,,,,,,,,,0,10,10,10,0,0,0,0,0,0,0,0,971.9299642080001,,,,,,,,,,,,,,,936.1238515000001,936.1728019999999,936.1651325000001,967.3138781250001,967.3442207500001,967.366344208,967.6343095830001,967.6343095830001,969.140019625,970.2696694580001,9.850000000000001,1.7476605839999593,1,[1.1402595409999776],[1.1402617909998298],,,,,,,971.9183422910002,971.9299642080001,971.9299642080001,1000.4780140409999,The narrator is talking about the end. Something about "fullbini"? The room seems too dark and quiet all of a sudden. Notices a speck of brown in the other's eyes.,1,[28.556508499999836],[28.55651141699991],,,,,,,,,,,,,,,,,,,,,,933.159119416,933.172157541,933.172157541,933.172157541,936.123654208,1,[2.9625270839999303],[2.9625297089999094],970.2701398750002,970.290309541,971.9176105,1,[1.6468959170001654],[1.6468987499999912],,,,,,,p_14,001,2024-05-17_10h10.52.509,speech_rate,2023.2.3,None,2024-05-17 10h11.05.248154 -0700,
,Someday_82_condition.wav,Someday__Someday__Maybe__Unabridged___File_037_of_116_3.wav,The end Huh I say baffled The end is supposed to show that he's come to terms with who he is It's supposed to show he's been healed Huh I say again I know Fellini can be abstract Dan says eyes gleaming Watch it with me from the beginning sometime I will I smile back at him noticing for the first time the flecks of green in his brown eyes The room seems too dark and quiet suddenly,What color are Dan's eyes,A. Blue with green flecks,B. Deep brown,C. Brown with green flecks,D. Dark green with brown flecks,C. Brown with green flecks,yes,31.15996875,,,,,,,,,,,,,0,10,10,10,0,0,0,0,,,,,,,,,,,,,,,,,,,,,,,,,,,,,,,,,,,,,,,,,,,,,,,,,,,,,,,,,,,,,,,,,,,,,,,,,,,,,,,,,,,,,,,,,,p_14,001,2024-05-17_10h10.52.509,speech_rate,2023.2.3,None,2024-05-17 10h11.05.248154 -0700,
,Someday_82_condition.wav,Someday__Someday__Maybe__Unabridged___File_037_of_116_3.wav,The end Huh I say baffled The end is supposed to show that he's come to terms with who he is It's supposed to show he's been healed Huh I say again I know Fellini can be abstract Dan says eyes gleaming Watch it with me from the beginning sometime I will I smile back at him noticing for the first time the flecks of green in his brown eyes The room seems too dark and quiet suddenly,What color are Dan's eyes,A. Blue with green flecks,B. Deep brown,C. Brown with green flecks,D. Dark green with brown flecks,C. Brown with green flecks,yes,31.15996875,,,,,,,,,,,,,0,10,10,10,,,,,,,,,,,,,,,,,,,,,,,,,,,,,,,,,,,,,,,,,,,,,,,,,,,,,1000.4784853750001,1005.687351916,0,,,0,,,1,5.200162499999806,5.200165457999901,0,,,,,,,,,,,,,,,,,,,,,,,,,,,,,,p_14,001,2024-05-17_10h10.52.509,speech_rate,2023.2.3,None,2024-05-17 10h11.05.248154 -0700,
,Someday_61_condition-3x.wav,Someday__Someday__Maybe__Unabridged___File_030_of_116_0.wav,He said we all we all is not asking you out but why leave a message just to we all me I think he's asking me out in his own way We all means I asked for your number because I think you're cute but I'm seeing someone So I'm trying to pretend to myself that I just asked for your number to be friends with you And I'm asking if you want to have a drink sometime with me and my girlfriend which will never But it helps me feel like less of a shithead for asking for your number in the first place You've been we all'd my friend,What does the term "we all" imply in the context given by the narrator?,A. The person is directly asking the narrator out on a date,B. The person left a message to genuinely make a new friend,C. The person is extending an invitation for a group outing,D. The person might be expressing interest under the guise of friendship despite being in a relationship,D. The person might be expressing interest under the guise of friendship despite being in a relationship,yes,11.41125,,,,,,,,,,,,,0,11,11,11,0,0,0,0,0,0,0,0,1023.4157289580002,,,,,,,,,,,,,,,1007.0616744580001,1007.0771733326668,1007.0781149580001,1018.4833943750001,1018.496278125,1018.51782375,1018.7880013330001,1018.7880013330001,1021.3046065,1022.6063016660001,6.975,2.75977725000007,1,[1.3105180830000336],[1.3105202080000709],,,,,,,1023.404500875,1023.4157289580002,1023.4157289580002,1053.40432275,The narrator's talking about the person asking her out? For a drink with him and his girlfriend. The narrator is talking about how this is a really bad way of asking someone out.,0,,,,,,,,,,,,,,,,,,,,,,,,1005.687906083,1005.6956242080001,1005.6956242080001,1005.6956242080001,1007.061417083,1,[1.3711474169999747],[1.3711499999999432],1022.606776208,1022.611937708,1023.403903458,1,[0.7965318340000067],[0.7965344589999859],1053.427675708,1053.427675708,,,,,p_14,001,2024-05-17_10h10.52.509,speech_rate,2023.2.3,None,2024-05-17 10h11.05.248154 -0700,
,Someday_61_condition-3x.wav,Someday__Someday__Maybe__Unabridged___File_030_of_116_0.wav,He said we all we all is not asking you out but why leave a message just to we all me I think he's asking me out in his own way We all means I asked for your number because I think you're cute but I'm seeing someone So I'm trying to pretend to myself that I just asked for your number to be friends with you And I'm asking if you want to have a drink sometime with me and my girlfriend which will never But it helps me feel like less of a shithead for asking for your number in the first place You've been we all'd my friend,What does the term "we all" imply in the context given by the narrator?,A. The person is directly asking the narrator out on a date,B. The person left a message to genuinely make a new friend,C. The person is extending an invitation for a group outing,D. The person might be expressing interest under the guise of friendship despite being in a relationship,D. The person might be expressing interest under the guise of friendship despite being in a relationship,yes,11.41125,,,,,,,,,,,,,0,11,11,11,0,0,0,0,,,,,,,,,,,,,,,,,,,,,,,,,,,,,,,,,,,,,,,,,,,,,,,,,,,,,,,,,,,,,,,,,,,,,,,,,,,,,,,,,,,,,,,,,,p_14,001,2024-05-17_10h10.52.509,speech_rate,2023.2.3,None,2024-05-17 10h11.05.248154 -0700,
,Someday_61_condition-3x.wav,Someday__Someday__Maybe__Unabridged___File_030_of_116_0.wav,He said we all we all is not asking you out but why leave a message just to we all me I think he's asking me out in his own way We all means I asked for your number because I think you're cute but I'm seeing someone So I'm trying to pretend to myself that I just asked for your number to be friends with you And I'm asking if you want to have a drink sometime with me and my girlfriend which will never But it helps me feel like less of a shithead for asking for your number in the first place You've been we all'd my friend,What does the term "we all" imply in the context given by the narrator?,A. The person is directly asking the narrator out on a date,B. The person left a message to genuinely make a new friend,C. The person is extending an invitation for a group outing,D. The person might be expressing interest under the guise of friendship despite being in a relationship,D. The person might be expressing interest under the guise of friendship despite being in a relationship,yes,11.41125,,,,,,,,,,,,,0,11,11,11,,,,,,,,,,,,,,,,,,,,,,,,,,,,,,,,,,,,,,,,,,,,,,,,,,,,,1053.404763541,1072.89852475,0,,,0,,,0,,,1,19.480262458000198,19.480265916000008,,,,,,,,,,,,,,,,,,,,,,,,,,,,p_14,001,2024-05-17_10h10.52.509,speech_rate,2023.2.3,None,2024-05-17 10h11.05.248154 -0700,
,Someday_66_condition-2x.wav,Someday__Someday__Maybe__Unabridged___File_032_of_116_1.wav,These are perfect Let's Polaroid these two we might have to cut them in the back though She says you guys really shouldn't fudge your sizes you know she attempts a smile but I can tell she's irritated I Didn't fudge my sizes I say as nicely as I can at least I don't think I did Well what jean size did you give them Eight maybe in inches I mean I'm not sure I didn't know they made pants in sizes like that,What does the woman suggest regarding jeans sizes?,A. The narrator should not fudge her size,B. The narrator should avoid mentioning her size,C. Sizes like eight inches don't exist,D. Smiles are essential for jeans fittings,A. The narrator should not fudge her size,yes,14.345,,,,,,,,,,,,,0,12,12,12,0,0,0,0,0,0,0,0,1097.617633333,,,,,,,,,,,,,,,1078.749104666,1078.7644158326666,1078.7697940829999,1093.1046597079999,1093.117432,1093.1286331659999,1093.391754125,1093.391754125,1095.797807125,1096.4214138749999,8.325,2.6414530829999876,1,[0.6366104999999607],[0.6366127500000403],,,,,,,1097.606301583,1097.617633333,1097.617633333,1122.574157333,Talking about which size jeans they got. Talking about not being sure which size jeans they got.,1,[24.964710208000042],[24.964713999999958],,,,,,,,,,,,,,,,,,,,,,1072.8991327909998,1072.9069950409998,1072.9069950409998,1072.9069950409998,1078.7488363329999,1,[5.847769874999813],[5.847772665999855],1096.421918708,1096.4308611659999,1097.605532291,1,[1.1830987499999992],[1.18310145800001],,,,,,,p_14,001,2024-05-17_10h10.52.509,speech_rate,2023.2.3,None,2024-05-17 10h11.05.248154 -0700,
,Someday_66_condition-2x.wav,Someday__Someday__Maybe__Unabridged___File_032_of_116_1.wav,These are perfect Let's Polaroid these two we might have to cut them in the back though She says you guys really shouldn't fudge your sizes you know she attempts a smile but I can tell she's irritated I Didn't fudge my sizes I say as nicely as I can at least I don't think I did Well what jean size did you give them Eight maybe in inches I mean I'm not sure I didn't know they made pants in sizes like that,What does the woman suggest regarding jeans sizes?,A. The narrator should not fudge her size,B. The narrator should avoid mentioning her size,C. Sizes like eight inches don't exist,D. Smiles are essential for jeans fittings,A. The narrator should not fudge her size,yes,14.345,,,,,,,,,,,,,0,12,12,12,0,0,0,0,,,,,,,,,,,,,,,,,,,,,,,,,,,,,,,,,,,,,,,,,,,,,,,,,,,,,,,,,,,,,,,,,,,,,,,,,,,,,,,,,,,,,,,,,,p_14,001,2024-05-17_10h10.52.509,speech_rate,2023.2.3,None,2024-05-17 10h11.05.248154 -0700,
,Someday_66_condition-2x.wav,Someday__Someday__Maybe__Unabridged___File_032_of_116_1.wav,These are perfect Let's Polaroid these two we might have to cut them in the back though She says you guys really shouldn't fudge your sizes you know she attempts a smile but I can tell she's irritated I Didn't fudge my sizes I say as nicely as I can at least I don't think I did Well what jean size did you give them Eight maybe in inches I mean I'm not sure I didn't know they made pants in sizes like that,What does the woman suggest regarding jeans sizes?,A. The narrator should not fudge her size,B. The narrator should avoid mentioning her size,C. Sizes like eight inches don't exist,D. Smiles are essential for jeans fittings,A. The narrator should not fudge her size,yes,14.345,,,,,,,,,,,,,0,12,12,12,,,,,,,,,,,,,,,,,,,,,,,,,,,,,,,,,,,,,,,,,,,,,,,,,,,,,1122.5746394159999,1128.403863708,1,5.819268415999886,5.819271957999945,0,,,0,,,0,,,,,,,,,,,,,,,,,,,,,,,,,,,,,,p_14,001,2024-05-17_10h10.52.509,speech_rate,2023.2.3,None,2024-05-17 10h11.05.248154 -0700,
,Someday_39_condition-5x.wav,Someday__Someday__Maybe__Unabridged___File_021_of_116_1.wav,People who are admired for holding it together are not people who are about to get agents They're people who are recovering from cancer or undergoing a murder trial And I dropped a section I add hoping he'll say he didn't notice Yeah I know but I only know because I'm obsessed with that guy's work No one will dock you for that It's not exactly a glowing review but he doesn't seem totally horrified Still he's avoiding the thing I most want to know But when I fell I mean how bad was it,What does the narrator hope the person they are talking to will say?,A. That he didn't notice the mistake,B. That he noticed the dropped section,C. That he wants to be an agent,D. That he's obsessed with the narrator's work,A. That he didn't notice the mistake,no,5.846,,,,,,,,,,,,,0,13,13,13,,,,,,,,,1128.4170440409998,,,,,,,,,,,,,,,1129.818691041,1129.8338701666667,1129.8298640409998,1135.675264666,1135.686376291,1135.697599791,1135.955087583,1135.955087583,1137.505451375,1138.302235458,1.1,1.783690125000021,1,[0.8058422920000794],[0.8058445419999316],,,,,,,,,,,,,,,1138.3026902499998,1149.119128458,1,10.806722416999946,10.806725083999936,0,,,0,,,0,,,,,,,,,,1128.404447416,1128.4170440409998,1128.4170440409998,1128.4170440409998,1129.818419708,1,[1.4133225840000705],[1.4133257089999915],,,,,,,,,,,,,p_14,001,2024-05-17_10h10.52.509,speech_rate,2023.2.3,None,2024-05-17 10h11.05.248154 -0700,
,Someday_70_condition-5x.wav,Someday__Someday__Maybe__Unabridged___File_033_of_116_4.wav,Um yes sure thanks again I'm not sure whether Carol is generally grumpy or if I made her that way I thumb through the copy of the National Enquirer Michael goes after Elvis's 200 million Cordelia Biscayne shopping spree Candice Bergen deathbed drama I wish I'd brought something else to read This magazine makes my stomach hurt So many people on a set to get to know I think while skimming Princess dies love letters So many names,What does the narrator think about Carol?,A. That she is grumpy,B. That she is friendly,C. That she is depressed,D. That she is lively,A. That she is grumpy,yes,5.91,,,,,,,,,,,,,0,14,14,14,0,0,0,0,0,0,0,0,1159.914984458,,,,,,,,,,,,,,,1150.587381458,1150.6016711666666,1150.599157875,1156.502408541,1156.513189625,1156.523768958,1156.7255693329998,1156.7255693329998,1158.569741541,1159.070733708,1.0499999999999998,2.020975792000172,1,[0.510377791999872],[0.5103804999998829],,,,,,,1159.903738416,1159.914984458,1159.914984458,1163.470752666,So many names,1,[3.563806999999997],[3.563810459000024],,,,,,,,,,,,,,,,,,,,,,1149.119659458,1149.12602875,1149.12602875,1149.12602875,1150.5859535,1,[1.464737624999998],[1.4647405000000617],1159.071309208,1159.085120791,1159.903045291,1,[0.8310117080000055],[0.831014290999974],,,,,,,p_14,001,2024-05-17_10h10.52.509,speech_rate,2023.2.3,None,2024-05-17 10h11.05.248154 -0700,
,Someday_70_condition-5x.wav,Someday__Someday__Maybe__Unabridged___File_033_of_116_4.wav,Um yes sure thanks again I'm not sure whether Carol is generally grumpy or if I made her that way I thumb through the copy of the National Enquirer Michael goes after Elvis's 200 million Cordelia Biscayne shopping spree Candice Bergen deathbed drama I wish I'd brought something else to read This magazine makes my stomach hurt So many people on a set to get to know I think while skimming Princess dies love letters So many names,What does the narrator think about Carol?,A. That she is grumpy,B. That she is friendly,C. That she is depressed,D. That she is lively,A. That she is grumpy,yes,5.91,,,,,,,,,,,,,0,14,14,14,0,0,0,0,,,,,,,,,,,,,,,,,,,,,,,,,,,,,,,,,,,,,,,,,,,,,,,,,,,,,,,,,,,,,,,,,,,,,,,,,,,,,,,,,,,,,,,,,,p_14,001,2024-05-17_10h10.52.509,speech_rate,2023.2.3,None,2024-05-17 10h11.05.248154 -0700,
,Someday_70_condition-5x.wav,Someday__Someday__Maybe__Unabridged___File_033_of_116_4.wav,Um yes sure thanks again I'm not sure whether Carol is generally grumpy or if I made her that way I thumb through the copy of the National Enquirer Michael goes after Elvis's 200 million Cordelia Biscayne shopping spree Candice Bergen deathbed drama I wish I'd brought something else to read This magazine makes my stomach hurt So many people on a set to get to know I think while skimming Princess dies love letters So many names,What does the narrator think about Carol?,A. That she is grumpy,B. That she is friendly,C. That she is depressed,D. That she is lively,A. That she is grumpy,yes,5.91,,,,,,,,,,,,,0,14,14,14,,,,,,,,,,,,,,,,,,,,,,,,,,,,,,,,,,,,,,,,,,,,,,,,,,,,,1163.47121975,1166.687121875,1,3.2067395000001397,3.20674220900014,0,,,0,,,0,,,,,,,,,,,,,,,,,,,,,,,,,,,,,,p_14,001,2024-05-17_10h10.52.509,speech_rate,2023.2.3,None,2024-05-17 10h11.05.248154 -0700,
,Someday_89_condition-3x.wav,Someday__Someday__Maybe__Unabridged___File_039_of_116_2.wav,Excuse me can you tell me what day of the week it is they'll say and laugh I'm leaning awkwardly against the wall near the door not sure what to do while I wait Maybe I should sit Plenty of people use sitting as a way to pass the time I look at the giant table and multitude of chairs Unless a bunch of people are going to join us this seems a strange room to choose for a meeting of two Yes I think I'll sit But I'm not sure which spot to choose I'm not totally sure I even want to sit yet,Why does the narrator feel uncertain about sitting in the room?,A. She is worried about her outfit,B. She doesn't know which chair to choose,C. She prefers to stand,D. She has somewhere else to be,B. She doesn't know which chair to choose,yes,10.7775,,,,,,,,,,,,,0,15,15,15,0,0,0,0,0,0,0,0,1182.6387984159999,,,,,,,,,,,,,,,1167.770546416,1167.7860404576666,1167.7893965829999,1178.570471375,1178.572846041,1178.5840397499999,1178.789523333,1178.789523333,1180.468841708,1181.7428097079999,5.008333333333333,2.5834914170000047,1,[1.2841151250001985],[1.2841173750000507],,,,,,,1182.627726875,1182.6387984159999,1182.6387984159999,1204.938657958,The narrator chooses which spot they want to sit in in a room that is supposed to be for a meeting for two people.,1,[22.307813874999965],[22.307817707999902],,,,,,,,,,,,,,,,,,,,,,1166.687650916,1166.694901333,1166.694901333,1166.694901333,1167.770314791,1,[1.081067542000028],[1.0810701670000071],1181.743321041,1181.753088291,1182.6269648749999,1,[0.8831379999999172],[0.883140542000092],,,,,,,p_14,001,2024-05-17_10h10.52.509,speech_rate,2023.2.3,None,2024-05-17 10h11.05.248154 -0700,
,Someday_89_condition-3x.wav,Someday__Someday__Maybe__Unabridged___File_039_of_116_2.wav,Excuse me can you tell me what day of the week it is they'll say and laugh I'm leaning awkwardly against the wall near the door not sure what to do while I wait Maybe I should sit Plenty of people use sitting as a way to pass the time I look at the giant table and multitude of chairs Unless a bunch of people are going to join us this seems a strange room to choose for a meeting of two Yes I think I'll sit But I'm not sure which spot to choose I'm not totally sure I even want to sit yet,Why does the narrator feel uncertain about sitting in the room?,A. She is worried about her outfit,B. She doesn't know which chair to choose,C. She prefers to stand,D. She has somewhere else to be,B. She doesn't know which chair to choose,yes,10.7775,,,,,,,,,,,,,0,15,15,15,0,0,0,0,,,,,,,,,,,,,,,,,,,,,,,,,,,,,,,,,,,,,,,,,,,,,,,,,,,,,,,,,,,,,,,,,,,,,,,,,,,,,,,,,,,,,,,,,,p_14,001,2024-05-17_10h10.52.509,speech_rate,2023.2.3,None,2024-05-17 10h11.05.248154 -0700,
,Someday_89_condition-3x.wav,Someday__Someday__Maybe__Unabridged___File_039_of_116_2.wav,Excuse me can you tell me what day of the week it is they'll say and laugh I'm leaning awkwardly against the wall near the door not sure what to do while I wait Maybe I should sit Plenty of people use sitting as a way to pass the time I look at the giant table and multitude of chairs Unless a bunch of people are going to join us this seems a strange room to choose for a meeting of two Yes I think I'll sit But I'm not sure which spot to choose I'm not totally sure I even want to sit yet,Why does the narrator feel uncertain about sitting in the room?,A. She is worried about her outfit,B. She doesn't know which chair to choose,C. She prefers to stand,D. She has somewhere else to be,B. She doesn't know which chair to choose,yes,10.7775,,,,,,,,,,,,,0,15,15,15,,,,,,,,,,,,,,,,,,,,,,,,,,,,,,,,,,,,,,,,,,,,,,,,,,,,,1204.939108416,1210.121146166,0,,,1,5.172006042000021,5.172009124999931,0,,,0,,,,,,,,,,,,,,,,,,,,,,,,,,,,,,p_14,001,2024-05-17_10h10.52.509,speech_rate,2023.2.3,None,2024-05-17 10h11.05.248154 -0700,
,Someday_59_condition.wav,Someday__Someday__Maybe__Unabridged___File_028_of_116_1.wav,It's all sort of a a vacuum isn't it Yes it can be I guess Everett isn't saying anything I haven't thought before but there's something so depressing in her description Something less than comforting in her attempt to be understanding in My work ever it says in mergers and amalgamations We're seeing a real boom Lbo's are still the cornerstone of the business obviously but the increase in global capital flows is translating to even more revenue,What does Everett's description sound like to the narrator?,A. Comforting,B. Understanding,C. Concerned,D. Depressing,D. Depressing,yes,29.94,,,,,,,,,,,,,0,16,16,16,0,0,0,0,0,0,0,0,1247.185194291,,,,,,,,,,,,,,,1211.3813854159998,1211.4132845833333,1211.414017166,1241.34819425,1241.3591935,1241.3808454159998,1241.626217041,1241.626217041,1243.828247,1245.757885625,10.0,3.501241166,1,[1.9387301669999033],[1.9387332499998138],,,,,,,1247.1739116249998,1247.185194291,1247.185194291,1270.1170419579998,"The narrator is having a talk with someone about LBOs and their position in the business. LBOs are still the cornerstone of the business, and they're translating into even more global revenue.",1,[22.93991512499997],[22.939918416999944],,,,,,,,,,,,,,,,,,,,,,1210.121609583,1210.1276492079999,1210.1276492079999,1210.1276492079999,1211.381170125,1,[1.2579198339999493],[1.2579224999999497],1245.75841625,1245.763204291,1247.1732944579999,1,[1.414356708000014],[1.4143596669998715],,,,,,,p_14,001,2024-05-17_10h10.52.509,speech_rate,2023.2.3,None,2024-05-17 10h11.05.248154 -0700,
,Someday_59_condition.wav,Someday__Someday__Maybe__Unabridged___File_028_of_116_1.wav,It's all sort of a a vacuum isn't it Yes it can be I guess Everett isn't saying anything I haven't thought before but there's something so depressing in her description Something less than comforting in her attempt to be understanding in My work ever it says in mergers and amalgamations We're seeing a real boom Lbo's are still the cornerstone of the business obviously but the increase in global capital flows is translating to even more revenue,What does Everett's description sound like to the narrator?,A. Comforting,B. Understanding,C. Concerned,D. Depressing,D. Depressing,yes,29.94,,,,,,,,,,,,,0,16,16,16,0,0,0,0,,,,,,,,,,,,,,,,,,,,,,,,,,,,,,,,,,,,,,,,,,,,,,,,,,,,,,,,,,,,,,,,,,,,,,,,,,,,,,,,,,,,,,,,,,p_14,001,2024-05-17_10h10.52.509,speech_rate,2023.2.3,None,2024-05-17 10h11.05.248154 -0700,
,Someday_59_condition.wav,Someday__Someday__Maybe__Unabridged___File_028_of_116_1.wav,It's all sort of a a vacuum isn't it Yes it can be I guess Everett isn't saying anything I haven't thought before but there's something so depressing in her description Something less than comforting in her attempt to be understanding in My work ever it says in mergers and amalgamations We're seeing a real boom Lbo's are still the cornerstone of the business obviously but the increase in global capital flows is translating to even more revenue,What does Everett's description sound like to the narrator?,A. Comforting,B. Understanding,C. Concerned,D. Depressing,D. Depressing,yes,29.94,,,,,,,,,,,,,0,16,16,16,,,,,,,,,,,,,,,,,,,,,,,,,,,,,,,,,,,,,,,,,,,,,,,,,,,,,1270.117518666,1281.96161325,1,11.834163375000117,11.834165917000064,0,,,0,,,0,,,,,,,,,,,,,,,,,,,,,,,,,,,,,,p_14,001,2024-05-17_10h10.52.509,speech_rate,2023.2.3,None,2024-05-17 10h11.05.248154 -0700,
,Someday_23_condition.wav,Someday__Someday__Maybe__Unabridged___File_014_of_116_0.wav,If you don't have any questions about the material then state your name and agency and go ahead whenever you're ready thanks so much I try to swallow but my throat is too dry This is the kind of room that's hard to do well in If they're in the mood to talk I can crack a few jokes make a small connection give myself a moment to settle down but these girls are all business I look down at the paper I'm not going to panic or ask for more time or tell them I didn't really have a chance to go over it yet I'm going to remain calm as if I'm a professional,How does the narrator plan to handle the situation in the room?,A. By making small talk and jokes,B. By panicking and asking for more time,C. By admitting she didn't prepare,D. By remaining calm and professional,D. By remaining calm and professional,yes,29.24996875,,,,,,,,,,,,,0,17,17,17,0,0,0,0,0,0,0,0,1316.344067666,,,,,,,,,,,,,,,1283.47729925,1283.5093807913333,1283.5084755409998,1312.7617786659998,1312.7642245,1312.7856104999998,1313.041752125,1313.041752125,1314.999903041,1315.5074608749999,10,2.189169292000088,1,[0.5170484170000691],[0.5170506670001487],,,,,,,1316.332028291,1316.344067666,1316.344067666,1346.331143916,"It seems as though the narrator is finishing a test. Remaining calm, as though she is a professional. However, she reveals that she hasn't had enough time to actually go over the test, and she needs to pretend",0,,,,,,,,,,,,,,,,,,,,,,,,1281.962143208,1281.9753718749998,1281.9753718749998,1281.9753718749998,1283.477026,1,[1.5132865000000493],[1.5132891250000284],1315.507983541,1315.512511125,1316.331282125,1,[0.8226503749999665],[0.8226554580000993],1346.351532625,1346.351532625,,,,,p_14,001,2024-05-17_10h10.52.509,speech_rate,2023.2.3,None,2024-05-17 10h11.05.248154 -0700,
,Someday_23_condition.wav,Someday__Someday__Maybe__Unabridged___File_014_of_116_0.wav,If you don't have any questions about the material then state your name and agency and go ahead whenever you're ready thanks so much I try to swallow but my throat is too dry This is the kind of room that's hard to do well in If they're in the mood to talk I can crack a few jokes make a small connection give myself a moment to settle down but these girls are all business I look down at the paper I'm not going to panic or ask for more time or tell them I didn't really have a chance to go over it yet I'm going to remain calm as if I'm a professional,How does the narrator plan to handle the situation in the room?,A. By making small talk and jokes,B. By panicking and asking for more time,C. By admitting she didn't prepare,D. By remaining calm and professional,D. By remaining calm and professional,yes,29.24996875,,,,,,,,,,,,,0,17,17,17,0,0,0,0,,,,,,,,,,,,,,,,,,,,,,,,,,,,,,,,,,,,,,,,,,,,,,,,,,,,,,,,,,,,,,,,,,,,,,,,,,,,,,,,,,,,,,,,,,p_14,001,2024-05-17_10h10.52.509,speech_rate,2023.2.3,None,2024-05-17 10h11.05.248154 -0700,
,Someday_23_condition.wav,Someday__Someday__Maybe__Unabridged___File_014_of_116_0.wav,If you don't have any questions about the material then state your name and agency and go ahead whenever you're ready thanks so much I try to swallow but my throat is too dry This is the kind of room that's hard to do well in If they're in the mood to talk I can crack a few jokes make a small connection give myself a moment to settle down but these girls are all business I look down at the paper I'm not going to panic or ask for more time or tell them I didn't really have a chance to go over it yet I'm going to remain calm as if I'm a professional,How does the narrator plan to handle the situation in the room?,A. By making small talk and jokes,B. By panicking and asking for more time,C. By admitting she didn't prepare,D. By remaining calm and professional,D. By remaining calm and professional,yes,29.24996875,,,,,,,,,,,,,0,17,17,17,,,,,,,,,,,,,,,,,,,,,,,,,,,,,,,,,,,,,,,,,,,,,,,,,,,,,1346.331627958,1352.330687333,0,,,0,,,0,,,1,5.98894949999999,5.988952500000096,,,,,,,,,,,,,,,,,,,,,,,,,,,,p_14,001,2024-05-17_10h10.52.509,speech_rate,2023.2.3,None,2024-05-17 10h11.05.248154 -0700,
,Someday_119_condition-2x.wav,Someday__Someday__Maybe__Unabridged___File_053_of_116_1.wav,But when did you start doing this I didn't see any of it in the fridge Yeah no that's the best part You don't have to refrigerate it It comes in a box It's freeze dried in a package and you just take it out and soak it You soak it It sounds weird I know but it's actually very convenient because you can take it anywhere you know on the go Why can't you just eat actual healthy food the kind that doesn't require soaking Well obviously because I can't be trusted to control myself This teaches you portion control,Why does the narrator prefer soaked food?,A. Because it helps with portion control,B. Because it tastes good,C. Becauseit is cheap,D. Because the friend likes it,A. Because it helps with portion control,no,14.345,,,,,,,,,,,,,0,18,18,18,,,,,,,,,1352.337056291,,,,,,,,,,,,,,,1353.247941291,1353.2633523326665,1353.267794291,1367.6149363329998,1367.617776541,1367.6289883749998,1367.893573583,1367.893573583,1369.479885708,1370.4004278329999,9.016666666666666,2.1798632919999363,1,[0.9319615839999642],[0.9319638340000438],,,,,,,,,,,,,,,1370.4009107079999,1373.76577825,1,3.3564556250000805,3.3564584170001126,0,,,0,,,0,,,,,,,,,,1352.3313404159999,1352.337056291,1352.337056291,1352.337056291,1353.247693541,1,[0.9157457500000419],[0.9157484160000422],,,,,,,,,,,,,p_14,001,2024-05-17_10h10.52.509,speech_rate,2023.2.3,None,2024-05-17 10h11.05.248154 -0700,
,Someday_101_condition-3x.wav,Someday__Someday__Maybe__Unabridged___File_044_of_116_3.wav,Okay great I say too forcefully So should I do it into the camera or I'm looking around vacantly not sure where to focus somehow not finding where the lens is Ah there's no camera here today since there's no scene exactly Tell you what why don't you just do it for Arthur here he says pointing to a painfully thin man with red hair and freckles to his left who looks not exactly happy to have been chosen as my target Okay great,Why won't the narrator have to perform in front of a camera during the audition?,A. Because there is no camera available,B. Because the scene doesn't require it,C. Because Arthur will perform it instead,D. Because the narrator refused to do it,B. Because the scene doesn't require it,yes,11.1525,,,,,,,,,,,,,0,19,19,19,0,0,0,0,0,0,0,0,1393.5862909579998,,,,,,,,,,,,,,,1376.819120458,1376.8319117496667,1376.836710916,1387.982515333,1388.0019304579998,1388.023490291,1388.2331265,1388.2331265,1390.0372923749999,1391.306275583,7.8999999999999995,1.9892749999999069,1,[1.2781909170000745],[1.2781932499999584],,,,,,,1393.574859541,1393.5862909579998,1393.5862909579998,1422.3254144159998,"The narrator is slightly confused about what to do. There is no camera. The director asks her to pretend that a person named Arthur is her audience, and Arthur is unhappy.",1,[28.747166084000128],[28.747168874999943],,,,,,,,,,,,,,,,,,,,,,1373.76640875,1373.774341208,1373.774341208,1373.774341208,1376.818828958,1,[3.05044758300005],[3.050452250000035],1391.3068234579998,1391.3147723749998,1393.5739449579999,1,[2.266492707999987],[2.2664953330001936],,,,,,,p_14,001,2024-05-17_10h10.52.509,speech_rate,2023.2.3,None,2024-05-17 10h11.05.248154 -0700,
,Someday_101_condition-3x.wav,Someday__Someday__Maybe__Unabridged___File_044_of_116_3.wav,Okay great I say too forcefully So should I do it into the camera or I'm looking around vacantly not sure where to focus somehow not finding where the lens is Ah there's no camera here today since there's no scene exactly Tell you what why don't you just do it for Arthur here he says pointing to a painfully thin man with red hair and freckles to his left who looks not exactly happy to have been chosen as my target Okay great,Why won't the narrator have to perform in front of a camera during the audition?,A. Because there is no camera available,B. Because the scene doesn't require it,C. Because Arthur will perform it instead,D. Because the narrator refused to do it,B. Because the scene doesn't require it,yes,11.1525,,,,,,,,,,,,,0,19,19,19,0,0,0,0,,,,,,,,,,,,,,,,,,,,,,,,,,,,,,,,,,,,,,,,,,,,,,,,,,,,,,,,,,,,,,,,,,,,,,,,,,,,,,,,,,,,,,,,,,p_14,001,2024-05-17_10h10.52.509,speech_rate,2023.2.3,None,2024-05-17 10h11.05.248154 -0700,
,Someday_101_condition-3x.wav,Someday__Someday__Maybe__Unabridged___File_044_of_116_3.wav,Okay great I say too forcefully So should I do it into the camera or I'm looking around vacantly not sure where to focus somehow not finding where the lens is Ah there's no camera here today since there's no scene exactly Tell you what why don't you just do it for Arthur here he says pointing to a painfully thin man with red hair and freckles to his left who looks not exactly happy to have been chosen as my target Okay great,Why won't the narrator have to perform in front of a camera during the audition?,A. Because there is no camera available,B. Because the scene doesn't require it,C. Because Arthur will perform it instead,D. Because the narrator refused to do it,B. Because the scene doesn't require it,yes,11.1525,,,,,,,,,,,,,0,19,19,19,,,,,,,,,,,,,,,,,,,,,,,,,,,,,,,,,,,,,,,,,,,,,,,,,,,,,1422.325923958,1428.718622958,1,6.380753832999972,6.3807565409999825,0,,,0,,,0,,,,,,,,,,,,,,,,,,,,,,,,,,,,,,p_14,001,2024-05-17_10h10.52.509,speech_rate,2023.2.3,None,2024-05-17 10h11.05.248154 -0700,
,Someday_67_condition-3x.wav,Someday__Someday__Maybe__Unabridged___File_033_of_116_1.wav,Well I'm doing all right I guess I imagine myself saying but I'm about three inches from where I really want to be I think of how much effort has taken me to even be a 29 I can't imagine what else I could do to be a 26 but it makes sense too that the Cordelia Biscaynes of the world are literally measurably different from the rest of us Three inches might as well be 300 to me today Hi I'm Carol,What size does the narrator wear?,A. 29,B. 26,C. 30,D. 28,A. 29,yes,10.97625,,,,,,,,,,,,,0,20,20,20,0,0,0,0,0,0,0,0,1444.931935333,,,,,,,,,,,,,,,1429.5356218329998,1429.5510706246666,1429.551578291,1440.535403791,1440.538304,1440.549528416,1440.809178666,1440.809178666,1443.673962458,1444.198023666,7.558333333333334,3.099666124999885,1,[0.5331099580000682],[0.5331124580000051],,,,,,,1444.920402666,1444.931935333,1444.931935333,1474.1551415,"the narrator is talking about being 3 inches away from her goal. However, 3 inches is unachievable.  3 may as well be 300 inches.",1,[29.231229540999948],[29.231232915999954],,,,,,,,,,,,,,,,,,,,,,1428.71919975,1428.726349416,1428.726349416,1428.726349416,1429.535406,1,[0.8144589170001382],[0.8144615420001173],1444.1985627499998,1444.203544,1444.919609916,1,[0.7204041249999591],[0.7204067909999594],,,,,,,p_14,001,2024-05-17_10h10.52.509,speech_rate,2023.2.3,None,2024-05-17 10h11.05.248154 -0700,
,Someday_67_condition-3x.wav,Someday__Someday__Maybe__Unabridged___File_033_of_116_1.wav,Well I'm doing all right I guess I imagine myself saying but I'm about three inches from where I really want to be I think of how much effort has taken me to even be a 29 I can't imagine what else I could do to be a 26 but it makes sense too that the Cordelia Biscaynes of the world are literally measurably different from the rest of us Three inches might as well be 300 to me today Hi I'm Carol,What size does the narrator wear?,A. 29,B. 26,C. 30,D. 28,A. 29,yes,10.97625,,,,,,,,,,,,,0,20,20,20,0,0,0,0,,,,,,,,,,,,,,,,,,,,,,,,,,,,,,,,,,,,,,,,,,,,,,,,,,,,,,,,,,,,,,,,,,,,,,,,,,,,,,,,,,,,,,,,,,p_14,001,2024-05-17_10h10.52.509,speech_rate,2023.2.3,None,2024-05-17 10h11.05.248154 -0700,
,Someday_67_condition-3x.wav,Someday__Someday__Maybe__Unabridged___File_033_of_116_1.wav,Well I'm doing all right I guess I imagine myself saying but I'm about three inches from where I really want to be I think of how much effort has taken me to even be a 29 I can't imagine what else I could do to be a 26 but it makes sense too that the Cordelia Biscaynes of the world are literally measurably different from the rest of us Three inches might as well be 300 to me today Hi I'm Carol,What size does the narrator wear?,A. 29,B. 26,C. 30,D. 28,A. 29,yes,10.97625,,,,,,,,,,,,,0,20,20,20,,,,,,,,,,,,,,,,,,,,,,,,,,,,,,,,,,,,,,,,,,,,,,,,,,,,,1474.155605583,1480.931244125,0,,,1,6.767078583000057,6.767081458000121,0,,,0,,,,,,,,,,,,,,,,,,,,,,,,,,,,,,p_14,001,2024-05-17_10h10.52.509,speech_rate,2023.2.3,None,2024-05-17 10h11.05.248154 -0700,
,Someday_47_condition-3x.wav,Someday__Someday__Maybe__Unabridged___File_024_of_116_3.wav,I almost feel as though I belong in this crowd tonight or that it's possible I could someday Absolute agency You're kidding me Look at you Dina hugs me hard when I tell her the news her perfectly polished red nails squeezing my arms Rockstar And another agency called Sparks Sparks That's Barney Sparks It's just him He's the whole office He's great He's been around a long time Dina holds her wine glass up already half empty and smiles,What does Dina do when the narrator tells her the news?,A. She hugs her,B. She shakes her hand,C. She kisses her,D. She cheers for her,A. She hugs her,no,11.2725,,,,,,,,,,,,,0,21,21,21,,,,,,,,,1480.938755291,,,,,,,,,,,,,,,1482.194899541,1482.2103101666667,1482.2119225,1493.479946833,1493.4843402499998,1493.495162541,1493.765582541,1493.765582541,1495.6940796659999,1496.107137208,5.991666666666666,2.1739428329999555,1,[0.4228245409999545],[0.42282679100003406],,,,,,,,,,,,,,,1496.107562958,1505.239964916,1,9.124735665999879,9.1247384159999,0,,,0,,,0,,,,,,,,,,1480.931764291,1480.938755291,1480.938755291,1480.938755291,1482.194668916,1,[1.2611888330000056],[1.2611914999999954],,,,,,,,,,,,,p_14,001,2024-05-17_10h10.52.509,speech_rate,2023.2.3,None,2024-05-17 10h11.05.248154 -0700,
,Someday_97_condition-5x.wav,Someday__Someday__Maybe__Unabridged___File_043_of_116_0.wav,Yes Aren't you going to ask me about my show What Yes I'm sorry tell me Well I'm pretty excited actually I just got booked to do my one man show Insights in the basement of Hooligans Hooligans that's great Where is that again You know the Irish bar on Second Avenue it has the basement where Claudia did her poetry reading Oh yeah that Hooligans yeah such a great space,Where will the one-man show be performed?,A. In a theater on Broadway,B. In the basement of an Irish bar,C. At Claudia's poetry reading,D. In a small town in Connecticut,B. In the basement of an Irish bar,yes,5.76,,,,,,,,,,,,,0,22,22,22,0,0,0,0,0,0,0,0,1515.888834125,,,,,,,,,,,,,,,1506.506790125,1506.5221893326666,1506.5185750409998,1512.2895348329998,1512.292429083,1512.3036554999999,1512.5075938749999,1512.5075938749999,1514.423652791,1514.8295719999999,2.075,2.0955865419998645,1,[0.41488283300009243],[0.4148850000001403],,,,,,,1515.8770674999998,1515.888834125,1515.888834125,1521.357832291,Great Yeah,1,[5.477439959000094],[5.477442958999973],,,,,,,,,,,,,,,,,,,,,,1505.240529666,1505.248447916,1505.248447916,1505.248447916,1506.506539875,1,[1.2642140410000593],[1.2642167500000596],1514.830074625,1514.8384445,1515.8762682909999,1,[1.0448549999998704],[1.044859957999961],,,,,,,p_14,001,2024-05-17_10h10.52.509,speech_rate,2023.2.3,None,2024-05-17 10h11.05.248154 -0700,
,Someday_97_condition-5x.wav,Someday__Someday__Maybe__Unabridged___File_043_of_116_0.wav,Yes Aren't you going to ask me about my show What Yes I'm sorry tell me Well I'm pretty excited actually I just got booked to do my one man show Insights in the basement of Hooligans Hooligans that's great Where is that again You know the Irish bar on Second Avenue it has the basement where Claudia did her poetry reading Oh yeah that Hooligans yeah such a great space,Where will the one-man show be performed?,A. In a theater on Broadway,B. In the basement of an Irish bar,C. At Claudia's poetry reading,D. In a small town in Connecticut,B. In the basement of an Irish bar,yes,5.76,,,,,,,,,,,,,0,22,22,22,0,0,0,0,,,,,,,,,,,,,,,,,,,,,,,,,,,,,,,,,,,,,,,,,,,,,,,,,,,,,,,,,,,,,,,,,,,,,,,,,,,,,,,,,,,,,,,,,,p_14,001,2024-05-17_10h10.52.509,speech_rate,2023.2.3,None,2024-05-17 10h11.05.248154 -0700,
,Someday_97_condition-5x.wav,Someday__Someday__Maybe__Unabridged___File_043_of_116_0.wav,Yes Aren't you going to ask me about my show What Yes I'm sorry tell me Well I'm pretty excited actually I just got booked to do my one man show Insights in the basement of Hooligans Hooligans that's great Where is that again You know the Irish bar on Second Avenue it has the basement where Claudia did her poetry reading Oh yeah that Hooligans yeah such a great space,Where will the one-man show be performed?,A. In a theater on Broadway,B. In the basement of an Irish bar,C. At Claudia's poetry reading,D. In a small town in Connecticut,B. In the basement of an Irish bar,yes,5.76,,,,,,,,,,,,,0,22,22,22,,,,,,,,,,,,,,,,,,,,,,,,,,,,,,,,,,,,,,,,,,,,,,,,,,,,,1521.358280208,1527.842758583,0,,,1,6.473780167000086,6.473783208999976,0,,,0,,,,,,,,,,,,,,,,,,,,,,,,,,,,,,p_14,001,2024-05-17_10h10.52.509,speech_rate,2023.2.3,None,2024-05-17 10h11.05.248154 -0700,
,Someday_56_condition-5x.wav,Someday__Someday__Maybe__Unabridged___File_027_of_116_4.wav,I'm not sure how to explain it to Everett in a way I think she'll understand What do I say Oh fine thanks Today was great but it doesn't take away my general fear that I'm not now nor will I ever be good enough Oh fine thanks There's a silence as we both sip our tea My whole family just went to see the Phantom of the Opera Everett says Have you seen it No I haven't Oh it's wonderful So magical There's a giant chandelier that appears right out of the sky,What are Everett and the narrator drinking while talking to each other?,A. Coffee,B. Wine,C. Tea,D. Beer,C. Tea,no,5.874,,,,,,,,,,,,,0,23,23,23,,,,,,,,,1527.856067208,,,,,,,,,,,,,,,1528.664355458,1528.6801919576667,1528.676606666,1534.557673041,1534.560429916,1534.5711395409999,1534.7804835,1534.7804835,1536.846232083,1537.469604041,1,2.250143167000033,1,[0.6327234590000899],[0.6327257920002012],,,,,,,,,,,,,,,1537.470076375,1541.5920523329999,0,,,0,,,1,4.114478875000032,4.114481500000011,0,,,,,,,,,,1527.8432827909999,1527.856067208,1527.856067208,1527.856067208,1528.664151041,1,[0.8202697920000901],[0.8202724170000693],,,,,,,,,,,,,p_14,001,2024-05-17_10h10.52.509,speech_rate,2023.2.3,None,2024-05-17 10h11.05.248154 -0700,
,Someday_24_condition-5x.wav,Someday__Someday__Maybe__Unabridged___File_015_of_116_0.wav,Thanks I say and then for no reason Any adjustments Stupid stupid Don't ask to do it again when you don't know what you did in the first place They both cock their heads at the same angle like two puppies in a pet store window Then they nod to each other again Sure yeah let's do one more just for kicks Yeah I mean that was great but let's in this one really have fun with it but also take it seriously like you did Yeah serious but fun like you're talking to your best friend Yeah like you're sharing a secret with your best friend,What do the casting directors suggest after the narrator's audition?,A. They compliment her performance,B. They ask her to do it in a more fun but serious way,C. They reject her immediately,D. They offer her the role,B. They ask her to do it in a more fun but serious way,yes,5.98,,,,,,,,,,,,,0,24,24,24,0,0,0,0,0,0,0,0,1552.38689875,,,,,,,,,,,,,,,1542.765016291,1542.7802829166667,1542.777315333,1548.758518083,1548.7648823329998,1548.776139458,1548.9936344999999,1548.9936344999999,1550.513714875,1550.9760831249998,1.1416666666666666,1.7132014999999683,1,[0.4714532089999466],[0.4714555420000579],,,,,,,1552.375806375,1552.38689875,1552.38689875,1572.1923339579998,Again. "Ummm".,1,[19.81319508300021],[19.813198041000078],,,,,,,,,,,,,,,,,,,,,,1541.592640375,1541.600224333,1541.600224333,1541.600224333,1542.7647869579998,1,[1.170344458000045],[1.170347250000077],1550.9765889999999,1550.981405375,1552.3751002909999,1,[1.3978654170000482],[1.3978678340001807],,,,,,,p_14,001,2024-05-17_10h10.52.509,speech_rate,2023.2.3,None,2024-05-17 10h11.05.248154 -0700,
,Someday_24_condition-5x.wav,Someday__Someday__Maybe__Unabridged___File_015_of_116_0.wav,Thanks I say and then for no reason Any adjustments Stupid stupid Don't ask to do it again when you don't know what you did in the first place They both cock their heads at the same angle like two puppies in a pet store window Then they nod to each other again Sure yeah let's do one more just for kicks Yeah I mean that was great but let's in this one really have fun with it but also take it seriously like you did Yeah serious but fun like you're talking to your best friend Yeah like you're sharing a secret with your best friend,What do the casting directors suggest after the narrator's audition?,A. They compliment her performance,B. They ask her to do it in a more fun but serious way,C. They reject her immediately,D. They offer her the role,B. They ask her to do it in a more fun but serious way,yes,5.98,,,,,,,,,,,,,0,24,24,24,0,0,0,0,,,,,,,,,,,,,,,,,,,,,,,,,,,,,,,,,,,,,,,,,,,,,,,,,,,,,,,,,,,,,,,,,,,,,,,,,,,,,,,,,,,,,,,,,,p_14,001,2024-05-17_10h10.52.509,speech_rate,2023.2.3,None,2024-05-17 10h11.05.248154 -0700,
,Someday_24_condition-5x.wav,Someday__Someday__Maybe__Unabridged___File_015_of_116_0.wav,Thanks I say and then for no reason Any adjustments Stupid stupid Don't ask to do it again when you don't know what you did in the first place They both cock their heads at the same angle like two puppies in a pet store window Then they nod to each other again Sure yeah let's do one more just for kicks Yeah I mean that was great but let's in this one really have fun with it but also take it seriously like you did Yeah serious but fun like you're talking to your best friend Yeah like you're sharing a secret with your best friend,What do the casting directors suggest after the narrator's audition?,A. They compliment her performance,B. They ask her to do it in a more fun but serious way,C. They reject her immediately,D. They offer her the role,B. They ask her to do it in a more fun but serious way,yes,5.98,,,,,,,,,,,,,0,24,24,24,,,,,,,,,,,,,,,,,,,,,,,,,,,,,,,,,,,,,,,,,,,,,,,,,,,,,1572.1927795,1581.628294333,0,,,1,9.424995666000086,9.42499854100015,0,,,0,,,,,,,,,,,,,,,,,,,,,,,,,,,,,,p_14,001,2024-05-17_10h10.52.509,speech_rate,2023.2.3,None,2024-05-17 10h11.05.248154 -0700,
,Someday_125_condition-2x.wav,Someday__Someday__Maybe__Unabridged___File_054_of_116_5.wav,I sit up as if he might be able to see through the telephone that I was lying down at an undignified hour still in the shorts and tank top I slept in I clear my throat and try to make my voice sound more awake It's me It's her That doesn't sound right It is I Hello I Did I wake you up No I'm awake Have a cold Oh shoot Is it a really bad one Joe has an audition for you I've just made an extremely speedy recovery Great Great,What does the narrator say she has?,A. A cold,B. A headache,C. A sore throat,D. A flu,A. A cold,yes,14.96496875,,,,,,,,,,,,,0,25,25,25,0,0,0,0,0,0,0,0,1601.562112416,,,,,,,,,,,,,,,1582.211144958,1582.2265480826666,1582.230441916,1597.194343125,1597.197313166,1597.208517291,1597.455944875,1597.455944875,1599.393198166,1600.635741583,9.408333333333333,2.899586083000031,1,[1.2550607919999948],[1.2550631249998787],,,,,,,1601.5496397079999,1601.562112416,1601.562112416,1629.720909958,"The narrator just woke up and gets a phone call. She tries to sound dignified and professional in the phone call, and in order to cover the fact that she just woke up, she pretends to have a cold.",1,[28.16764141700014],[28.167644750000136],,,,,,,,,,,,,,,,,,,,,,1581.628882416,1581.636725583,1581.636725583,1581.636725583,1582.21089925,1,[0.5801491249999344],[0.5801516670001092],1600.636245666,1600.643089666,1601.548854,1,[0.9116184590000103],[0.9116285420000168],,,,,,,p_14,001,2024-05-17_10h10.52.509,speech_rate,2023.2.3,None,2024-05-17 10h11.05.248154 -0700,
,Someday_125_condition-2x.wav,Someday__Someday__Maybe__Unabridged___File_054_of_116_5.wav,I sit up as if he might be able to see through the telephone that I was lying down at an undignified hour still in the shorts and tank top I slept in I clear my throat and try to make my voice sound more awake It's me It's her That doesn't sound right It is I Hello I Did I wake you up No I'm awake Have a cold Oh shoot Is it a really bad one Joe has an audition for you I've just made an extremely speedy recovery Great Great,What does the narrator say she has?,A. A cold,B. A headache,C. A sore throat,D. A flu,A. A cold,yes,14.96496875,,,,,,,,,,,,,0,25,25,25,0,0,0,0,,,,,,,,,,,,,,,,,,,,,,,,,,,,,,,,,,,,,,,,,,,,,,,,,,,,,,,,,,,,,,,,,,,,,,,,,,,,,,,,,,,,,,,,,,p_14,001,2024-05-17_10h10.52.509,speech_rate,2023.2.3,None,2024-05-17 10h11.05.248154 -0700,
,Someday_125_condition-2x.wav,Someday__Someday__Maybe__Unabridged___File_054_of_116_5.wav,I sit up as if he might be able to see through the telephone that I was lying down at an undignified hour still in the shorts and tank top I slept in I clear my throat and try to make my voice sound more awake It's me It's her That doesn't sound right It is I Hello I Did I wake you up No I'm awake Have a cold Oh shoot Is it a really bad one Joe has an audition for you I've just made an extremely speedy recovery Great Great,What does the narrator say she has?,A. A cold,B. A headache,C. A sore throat,D. A flu,A. A cold,yes,14.96496875,,,,,,,,,,,,,0,25,25,25,,,,,,,,,,,,,,,,,,,,,,,,,,,,,,,,,,,,,,,,,,,,,,,,,,,,,1629.7213615829999,1631.3033162909999,1,1.5740785830000732,1.5740810419999889,0,,,0,,,0,,,,,,,,,,,,,,,,,,,,,,,,,,,,,,p_14,001,2024-05-17_10h10.52.509,speech_rate,2023.2.3,None,2024-05-17 10h11.05.248154 -0700,
,Someday_98_condition.wav,Someday__Someday__Maybe__Unabridged___File_044_of_116_0.wav,Yes Laughing girl has no lines She just laughs She just so there's no scene Nope She's a girl She laughs They want a funny laugher That's it Take a seat They'll be with you in a minute I squeeze onto the lumpy sofa next to a skinny brunette wearing high heeled black boots and funky glasses I should wear high heeled boots instead of Doc Martens I think to myself as I break into a nervous sweat I should get some funky glasses I should have a funny laugh,What is the role that the narrator is auditioning for?,A. A dramatic lead,B. A character with no lines,C. A comedy writer,D. A serious actress,B. A character with no lines,yes,29.11,,,,,,,,,,,,,0,26,26,26,0,0,0,0,0,0,0,0,1664.6002456249998,,,,,,,,,,,,,,,1631.803248708,1631.8353684993333,1631.8349189159999,1660.9481363749999,1660.951240833,1660.97251975,1661.239468458,1661.239468458,1663.091391583,1663.782758916,9.133333333333333,2.0922876249999263,1,[0.7005072909998944],[0.7005103330000111],,,,,,,1664.5891119159999,1664.6002456249998,1664.6002456249998,1693.450895875,"The narrator seems to be auditioning for a "funny girl" role, where the literal only thing she has to do is to laugh funnily. She sits down on a lumpy sofa next to a person wearing high heels, and she thinks she should too.",1,[28.858271332999948],[28.858274458000096],,,,,,,,,,,,,,,,,,,,,,1631.30381075,1631.310797916,1631.310797916,1631.310797916,1631.803057458,1,[0.49765529100000094],[0.4976579579999907],1663.7833082079999,1663.7971191249999,1664.588318125,1,[0.8043377090000376],[0.8043404590000591],,,,,,,p_14,001,2024-05-17_10h10.52.509,speech_rate,2023.2.3,None,2024-05-17 10h11.05.248154 -0700,
,Someday_98_condition.wav,Someday__Someday__Maybe__Unabridged___File_044_of_116_0.wav,Yes Laughing girl has no lines She just laughs She just so there's no scene Nope She's a girl She laughs They want a funny laugher That's it Take a seat They'll be with you in a minute I squeeze onto the lumpy sofa next to a skinny brunette wearing high heeled black boots and funky glasses I should wear high heeled boots instead of Doc Martens I think to myself as I break into a nervous sweat I should get some funky glasses I should have a funny laugh,What is the role that the narrator is auditioning for?,A. A dramatic lead,B. A character with no lines,C. A comedy writer,D. A serious actress,B. A character with no lines,yes,29.11,,,,,,,,,,,,,0,26,26,26,0,0,0,0,,,,,,,,,,,,,,,,,,,,,,,,,,,,,,,,,,,,,,,,,,,,,,,,,,,,,,,,,,,,,,,,,,,,,,,,,,,,,,,,,,,,,,,,,,p_14,001,2024-05-17_10h10.52.509,speech_rate,2023.2.3,None,2024-05-17 10h11.05.248154 -0700,
,Someday_98_condition.wav,Someday__Someday__Maybe__Unabridged___File_044_of_116_0.wav,Yes Laughing girl has no lines She just laughs She just so there's no scene Nope She's a girl She laughs They want a funny laugher That's it Take a seat They'll be with you in a minute I squeeze onto the lumpy sofa next to a skinny brunette wearing high heeled black boots and funky glasses I should wear high heeled boots instead of Doc Martens I think to myself as I break into a nervous sweat I should get some funky glasses I should have a funny laugh,What is the role that the narrator is auditioning for?,A. A dramatic lead,B. A character with no lines,C. A comedy writer,D. A serious actress,B. A character with no lines,yes,29.11,,,,,,,,,,,,,0,26,26,26,,,,,,,,,,,,,,,,,,,,,,,,,,,,,,,,,,,,,,,,,,,,,,,,,,,,,1693.451357208,1696.5194683329998,0,,,1,3.059024665999914,3.0590272910001204,0,,,0,,,,,,,,,,,,,,,,,,,,,,,,,,,,,,p_14,001,2024-05-17_10h10.52.509,speech_rate,2023.2.3,None,2024-05-17 10h11.05.248154 -0700,
,Someday_79_condition-5x.wav,Someday__Someday__Maybe__Unabridged___File_036_of_116_1.wav,But something is holding me back It would be so easy to say yes and leave this room with an agent almost too easy I Look around the room and the walls of old scripts and playbills that seemed warm and friendly when I first came in Now look cluttered and shabby the leather on the arms of this giant lumpy chair is worn thin The stuffing is peeking through one of the seams and the sunlight streaming through the window is cloudy with dust I stammer a bit,What is one of the factors that is preventing the narrator from immediately accepting the agent's offer?,A. The agent's appearance,B. The condition of the room,C. The agent's attitude,D. The lack of other actors,B. The condition of the room,yes,5.69,,,,,,,,,,,,,0,27,27,27,0,0,0,0,0,0,0,0,1723.819368583,,,,,,,,,,,,,,,1711.318577375,1711.3338762916667,1711.330425875,1717.018277083,1717.0384642909999,1717.049682875,1717.3094187079998,1717.3094187079998,1719.460721333,1721.97233975,1.9416666666666667,4.279247458999862,1,[2.5206785839998247],[2.5206810419999783],,,,,,,1723.807520291,1723.819368583,1723.819368583,1733.035890208,,1,[9.225058541999942],[9.225061291999964],,,,,,,,,,,,,,,,,,,,,,1696.5200022909999,1696.5325048329998,1696.5325048329998,1696.5325048329998,1711.31829225,1,[14.79659608299994],[14.796598916999983],1721.972894083,1721.983666375,1723.806847458,1,[1.8332999579999978],[1.8333026249999875],,,,,,,p_14,001,2024-05-17_10h10.52.509,speech_rate,2023.2.3,None,2024-05-17 10h11.05.248154 -0700,
,Someday_79_condition-5x.wav,Someday__Someday__Maybe__Unabridged___File_036_of_116_1.wav,But something is holding me back It would be so easy to say yes and leave this room with an agent almost too easy I Look around the room and the walls of old scripts and playbills that seemed warm and friendly when I first came in Now look cluttered and shabby the leather on the arms of this giant lumpy chair is worn thin The stuffing is peeking through one of the seams and the sunlight streaming through the window is cloudy with dust I stammer a bit,What is one of the factors that is preventing the narrator from immediately accepting the agent's offer?,A. The agent's appearance,B. The condition of the room,C. The agent's attitude,D. The lack of other actors,B. The condition of the room,yes,5.69,,,,,,,,,,,,,0,27,27,27,0,0,0,0,,,,,,,,,,,,,,,,,,,,,,,,,,,,,,,,,,,,,,,,,,,,,,,,,,,,,,,,,,,,,,,,,,,,,,,,,,,,,,,,,,,,,,,,,,p_14,001,2024-05-17_10h10.52.509,speech_rate,2023.2.3,None,2024-05-17 10h11.05.248154 -0700,
,Someday_79_condition-5x.wav,Someday__Someday__Maybe__Unabridged___File_036_of_116_1.wav,But something is holding me back It would be so easy to say yes and leave this room with an agent almost too easy I Look around the room and the walls of old scripts and playbills that seemed warm and friendly when I first came in Now look cluttered and shabby the leather on the arms of this giant lumpy chair is worn thin The stuffing is peeking through one of the seams and the sunlight streaming through the window is cloudy with dust I stammer a bit,What is one of the factors that is preventing the narrator from immediately accepting the agent's offer?,A. The agent's appearance,B. The condition of the room,C. The agent's attitude,D. The lack of other actors,B. The condition of the room,yes,5.69,,,,,,,,,,,,,0,27,27,27,,,,,,,,,,,,,,,,,,,,,,,,,,,,,,,,,,,,,,,,,,,,,,,,,,,,,1733.036248666,1743.8448113329998,1,10.79846820900002,10.798471124999878,0,,,0,,,0,,,,,,,,,,,,,,,,,,,,,,,,,,,,,,p_14,001,2024-05-17_10h10.52.509,speech_rate,2023.2.3,None,2024-05-17 10h11.05.248154 -0700,
,Someday_95_condition-5x.wav,Someday__Someday__Maybe__Unabridged___File_041_of_116_2.wav,Sports God no no That's hilarious to think about I laugh picturing me and my dad who have been known to spend an entire weekend sitting in the living room reading books one after the other stopping only to eat a frozen pizza or make popcorn playing tennis or skiing or kayaking down some rapids Competitive like I always made everything a game when I was a kid I have a good memory and so does my dad so we try to stump each other like try to start reciting Jabberwocky from the middle,What does the narrator and their dad often do on weekends?,A. Play sports together,B. Go kayaking down rapids,C. Reading books,D. Watch movies and eat popcorn,C. Reading books,yes,5.866,,,,,,,,,,,,,0,28,28,28,0,0,0,0,0,0,0,0,1753.9879557909999,,,,,,,,,,,,,,,1745.507640458,1745.5230383326666,1745.517587375,1751.3863583749999,1751.393477541,1751.404760333,1751.6310160409998,1751.6310160409998,1752.830080875,1753.372736916,1.225,1.3931017079999037,1,[0.5519286660000944],[0.5519312080000418],,,,,,,1753.9782767909999,1753.9879557909999,1753.9879557909999,1762.745440083,"Laugh, sometimes",1,[8.764263583999991],[8.764266791999944],,,,,,,,,,,,,,,,,,,,,,1743.845281208,1743.850924833,1743.850924833,1743.850924833,1745.5074514579999,1,[1.6615357499999845],[1.6615383329999531],1753.373260291,1753.384928916,1753.9771678749999,1,[0.6018177910000304],[0.601827166000021],,,,,,,p_14,001,2024-05-17_10h10.52.509,speech_rate,2023.2.3,None,2024-05-17 10h11.05.248154 -0700,
,Someday_95_condition-5x.wav,Someday__Someday__Maybe__Unabridged___File_041_of_116_2.wav,Sports God no no That's hilarious to think about I laugh picturing me and my dad who have been known to spend an entire weekend sitting in the living room reading books one after the other stopping only to eat a frozen pizza or make popcorn playing tennis or skiing or kayaking down some rapids Competitive like I always made everything a game when I was a kid I have a good memory and so does my dad so we try to stump each other like try to start reciting Jabberwocky from the middle,What does the narrator and their dad often do on weekends?,A. Play sports together,B. Go kayaking down rapids,C. Reading books,D. Watch movies and eat popcorn,C. Reading books,yes,5.866,,,,,,,,,,,,,0,28,28,28,0,0,0,0,,,,,,,,,,,,,,,,,,,,,,,,,,,,,,,,,,,,,,,,,,,,,,,,,,,,,,,,,,,,,,,,,,,,,,,,,,,,,,,,,,,,,,,,,,p_14,001,2024-05-17_10h10.52.509,speech_rate,2023.2.3,None,2024-05-17 10h11.05.248154 -0700,
,Someday_95_condition-5x.wav,Someday__Someday__Maybe__Unabridged___File_041_of_116_2.wav,Sports God no no That's hilarious to think about I laugh picturing me and my dad who have been known to spend an entire weekend sitting in the living room reading books one after the other stopping only to eat a frozen pizza or make popcorn playing tennis or skiing or kayaking down some rapids Competitive like I always made everything a game when I was a kid I have a good memory and so does my dad so we try to stump each other like try to start reciting Jabberwocky from the middle,What does the narrator and their dad often do on weekends?,A. Play sports together,B. Go kayaking down rapids,C. Reading books,D. Watch movies and eat popcorn,C. Reading books,yes,5.866,,,,,,,,,,,,,0,28,28,28,,,,,,,,,,,,,,,,,,,,,,,,,,,,,,,,,,,,,,,,,,,,,,,,,,,,,1762.745882875,1769.094999875,0,,,1,6.338371165999888,6.338373708000063,0,,,0,,,,,,,,,,,,,,,,,,,,,,,,,,,,,,p_14,001,2024-05-17_10h10.52.509,speech_rate,2023.2.3,None,2024-05-17 10h11.05.248154 -0700,
,Someday_27_condition-3x.wav,Someday__Someday__Maybe__Unabridged___File_016_of_116_0.wav,And maybe we'll go out sometime and maybe we'll fall in love and someday we'll happen to be walking down this very street and he'll say remember that day when we accidentally ran into each other here But none of that can happen if he walks by me on the street today I make my way across 45th Street and hover near a trash can digging in my bag as if I'm looking for something I need to throw out waiting for his light to change Finally I can see him start to walk across the street I look away so he doesn't see me staring at him and when I glance up again I've lost him in the crowd,What is the narrator's hope regarding the person she encounters on the street?,A. To avoid meeting them,B. To have a chance encounter,C. To never see them again,D. To get their phone number,B. To have a chance encounter,yes,11.085,,,,,,,,,,,,,0,29,29,29,0,0,0,0,0,0,0,0,1786.250671541,,,,,,,,,,,,,,,1770.110976541,1770.1267181246667,1770.128202291,1781.2168850829999,1781.218927708,1781.230096125,1781.453812625,1781.453812625,1784.255896125,1785.228019875,7.6000000000000005,3.4717699580000954,1,[0.9819435419999536],[0.9819458340000438],,,,,,,1786.2395301249999,1786.250671541,1786.250671541,1816.2397185,"The narrator is talking with someone, gets lost in a crowd",0,,,,,,,,,,,,,,,,,,,,,,,,1769.095494916,1769.1019837909998,1769.1019837909998,1769.1019837909998,1770.1107924159999,1,[1.0136502499999551],[1.013652833000151],1785.228489291,1785.2370746249999,1786.238937875,1,[1.0097897079999711],[1.0097925410000244],1816.2586817499998,1816.2586817499998,,,,,p_14,001,2024-05-17_10h10.52.509,speech_rate,2023.2.3,None,2024-05-17 10h11.05.248154 -0700,
,Someday_27_condition-3x.wav,Someday__Someday__Maybe__Unabridged___File_016_of_116_0.wav,And maybe we'll go out sometime and maybe we'll fall in love and someday we'll happen to be walking down this very street and he'll say remember that day when we accidentally ran into each other here But none of that can happen if he walks by me on the street today I make my way across 45th Street and hover near a trash can digging in my bag as if I'm looking for something I need to throw out waiting for his light to change Finally I can see him start to walk across the street I look away so he doesn't see me staring at him and when I glance up again I've lost him in the crowd,What is the narrator's hope regarding the person she encounters on the street?,A. To avoid meeting them,B. To have a chance encounter,C. To never see them again,D. To get their phone number,B. To have a chance encounter,yes,11.085,,,,,,,,,,,,,0,29,29,29,0,0,0,0,,,,,,,,,,,,,,,,,,,,,,,,,,,,,,,,,,,,,,,,,,,,,,,,,,,,,,,,,,,,,,,,,,,,,,,,,,,,,,,,,,,,,,,,,,p_14,001,2024-05-17_10h10.52.509,speech_rate,2023.2.3,None,2024-05-17 10h11.05.248154 -0700,
,Someday_27_condition-3x.wav,Someday__Someday__Maybe__Unabridged___File_016_of_116_0.wav,And maybe we'll go out sometime and maybe we'll fall in love and someday we'll happen to be walking down this very street and he'll say remember that day when we accidentally ran into each other here But none of that can happen if he walks by me on the street today I make my way across 45th Street and hover near a trash can digging in my bag as if I'm looking for something I need to throw out waiting for his light to change Finally I can see him start to walk across the street I look away so he doesn't see me staring at him and when I glance up again I've lost him in the crowd,What is the narrator's hope regarding the person she encounters on the street?,A. To avoid meeting them,B. To have a chance encounter,C. To never see them again,D. To get their phone number,B. To have a chance encounter,yes,11.085,,,,,,,,,,,,,0,29,29,29,,,,,,,,,,,,,,,,,,,,,,,,,,,,,,,,,,,,,,,,,,,,,,,,,,,,,1816.240172958,1825.224874625,0,,,1,8.975174874999993,8.975177541999983,0,,,0,,,,,,,,,,,,,,,,,,,,,,,,,,,,,,p_14,001,2024-05-17_10h10.52.509,speech_rate,2023.2.3,None,2024-05-17 10h11.05.248154 -0700,
,Someday_105_condition.wav,Someday__Someday__Maybe__Unabridged___File_047_of_116_1.wav,Like he was a person but from another planet or something But the longer I work for him the more I see he's just this guy this very unusually gorgeous extremely muscly guy who's sort of funny and sort of smart but who's a regular person who married the girl he dated in high school and doesn't seem to know how he got here He seems totally baffled by his success and he's always asking my opinion about things like his wardrobe or whatever And I'm wondering if he's forgotten I'm just the PA on my very first movie ever,What is the narrator's perception of the person she works for?,A. He's like a person from another planet,B. He's extremely muscly and smart,C. He's very confident and self-assured,D. He's just a regular person baffled by his success,D. He's just a regular person baffled by his success,no,29.80996875,,,,,,,,,,,,,0,30,30,30,,,,,,,,,1825.232712416,,,,,,,,,,,,,,,1826.677077291,1826.7072286663333,1826.708767291,1856.526016458,1856.5267999999999,1856.548377458,1856.812633333,1856.812633333,1858.659773958,1859.228269916,10,2.0867628330001935,1,[0.5775310419999187],[0.5775333330000194],,,,,,,,,,,,,,,1859.2287139999999,1868.0540503749999,0,,,0,,,0,,,1,8.815750207999827,8.815753332999975,,,,,,,,1825.225405791,1825.232712416,1825.232712416,1825.232712416,1826.67680075,1,[1.4478549999998904],[1.4478579169999648],,,,,,,,,,,,,p_14,001,2024-05-17_10h10.52.509,speech_rate,2023.2.3,None,2024-05-17 10h11.05.248154 -0700,
,Someday_8_condition.wav,Someday__Someday__Maybe__Unabridged___File_007_of_116_1.wav,And one accomplishment a year wasn't exactly what I had in mind Still wedged halfway beneath the bed it takes all my strength to push a barely used roller blade out of the way At this point I'm just sweeping my arm back and forth making the same movement under my bed as I would if making a snow angel only the accumulated junk is a lot harder to move I give up for a moment resting my cheek against the cool wooden floor with a sigh Do you have any idea how few actors make it people always say,What does the narrator push out of the way?,A. Roller blades,B. Snow angel drawings,C. Junk that's hard to move,D. Cool wooden floor,A. Roller blades,no,29.13,,,,,,,,,,,,,0,31,31,31,,,,,,,,,1868.0622032909998,,,,,,,,,,,,,,,1871.499037916,1871.5308564993331,1871.5301232499999,1900.662455875,1900.6658150409999,1900.6871873329999,1900.897377125,1900.897377125,1902.4226986249998,1904.568296291,9.866666666666667,2.978436542000054,1,[2.1550229580000178],[2.1550262499999917],,,,,,,,,,,,,,,1904.5687396659998,1908.796359666,0,,,0,,,1,4.219070625000086,4.219073791000028,0,,,,,,,,,,1868.0546567909998,1868.0622032909998,1868.0622032909998,1868.0622032909998,1871.498753791,1,[3.4421085419999145],[3.4421113339999465],,,,,,,,,,,,,p_14,001,2024-05-17_10h10.52.509,speech_rate,2023.2.3,None,2024-05-17 10h11.05.248154 -0700,
