index,wav_file,old_name,segment_text,question,C1,C2,C3,C4,C_correct,summary,duration,training.thisRepN,training.thisTrialN,training.thisN,training.thisIndex,sum_true.thisRepN,sum_true.thisTrialN,sum_true.thisN,sum_true.thisIndex,dummy_loop.thisRepN,dummy_loop.thisTrialN,dummy_loop.thisN,dummy_loop.thisIndex,experiment.thisRepN,experiment.thisTrialN,experiment.thisN,experiment.thisIndex,sum_true_exp.thisRepN,sum_true_exp.thisTrialN,sum_true_exp.thisN,sum_true_exp.thisIndex,dummy_loop_exp.thisRepN,dummy_loop_exp.thisTrialN,dummy_loop_exp.thisN,dummy_loop_exp.thisIndex,thisRow.t,notes,Experimenter.started,reminder.started,Experimenter.stopped,Instructions.started,Instructions.stopped,Start_Segment_Train.started,Play_train.started,Trial_counter_train.started,text_5.started,Start_Segment_Train.stopped,Play_train.numClicks,Play_train.timesOn,Play_train.timesOff,Training_Segment.started,Experimen_audio.started,polygon.started,polygon.stopped,Training_Segment.stopped,Rating.started,slider.started,text_3.started,button_2.started,Rating.stopped,slider.response,slider.rt,button_2.numClicks,button_2.timesOn,button_2.timesOff,Start_Summary.started,text_2.started,Start_Summary.stopped,summary_button.numClicks,summary_button.timesOn,summary_button.timesOff,Summary.started,textbox.started,summary_done.started,Summary.stopped,textbox.text,summary_done.numClicks,summary_done.timesOn,summary_done.timesOff,Multiple_Choice_2.started,Multiple_Choice_2.stopped,A.numClicks,A.timesOn,A.timesOff,B.numClicks,B.timesOn,B.timesOff,C.numClicks,C.timesOn,C.timesOff,D.numClicks,D.timesOn,D.timesOff,textbox.stopped,summary_done.stopped,Start_Exp.started,Start_exp.started,Start.started,Start_Exp.stopped,Start.numClicks,Start.timesOn,Start.timesOff,Start_Segment.started,Play.started,Trial_counter.started,text_6.started,Start_Segment.stopped,Play.numClicks,Play.timesOn,Play.timesOff,Start_Sum_Exp.started,text_4.started,Start_Sum_Exp.stopped,sum_button.numClicks,sum_button.timesOn,sum_button.timesOff,Thanks.started,text_7.started,text_7.stopped,Thanks.stopped,participant,session,date,expName,psychopyVersion,frameRate,expStart,
1,Someday_trial_condition.wav,Someday__Someday__Maybe__Unabridged___File_069_of_116_3.wav,It's a gut feeling You can't nickname him He's a real person not a joke person You don't have to tell me Only a real person would try to shake hands with my best friend's foot Jane you're not explaining it right It was very romantic And thankfully our steaming bowl of bright yellow melted cheese with flecks of green chilies arrives Listen she says dipping a chip into the creamy depths You're the one with the brand new personality I'm still the same old Jane,"What does the narrator have, according to Jane?",A) A new recipe for dipping sauce,B) A new personality,C) A new restaurant suggestion,D) A new pair of shoes,B) A new personality,yes,30,0,0,0,0,0,0,0,0,0,0,0,0,,,,,,,,,,,,,186.93696862500000,,0.009707958000035430,0.019176916999981600,19.09683937500010,19.09684745800010,42.00785912500000,42.01826758300000,42.03526970800000,42.03526970800000,42.03526970800000,44.27375333300010,1,[2.2461241249999375],[2.2461269169999696],44.27427187500010,44.32288016700000,44.316491375000100,74.33864645800010,74.30891825000000,74.33037579200000,74.53778216700010,74.53778216700010,138.110328083,171.7585609580000,9.916666666666670,87.07690770900000,1,[33.660903125000004],[33.66090566699995],171.76059116700000,171.766294625,186.8984992080000,1,[15.13722908300008],[15.13723200000004],186.899288792,186.93696862500000,186.93696862500000,216.899146792,"It was someone talking to their friend about what seemed like a breakup, and a foot",0,,,,,,,,,,,,,,,,,,,,,,,,,,,,,,,,,,,,,,,,,,,,p_2,1,2024-05-04_09h51.46.754,speech_rate,2023.2.3,None,2024-05-04 09h52.26.022892 -0700,
1,Someday_trial_condition.wav,Someday__Someday__Maybe__Unabridged___File_069_of_116_3.wav,It's a gut feeling You can't nickname him He's a real person not a joke person You don't have to tell me Only a real person would try to shake hands with my best friend's foot Jane you're not explaining it right It was very romantic And thankfully our steaming bowl of bright yellow melted cheese with flecks of green chilies arrives Listen she says dipping a chip into the creamy depths You're the one with the brand new personality I'm still the same old Jane,"What does the narrator have, according to Jane?",A) A new recipe for dipping sauce,B) A new personality,C) A new restaurant suggestion,D) A new pair of shoes,B) A new personality,yes,30,0,0,0,0,0,0,0,0,,,,,,,,,,,,,,,,,,,,,,,,,,,,,,,,,,,,,,,,,,,,,,,,,,,,,,,,,,,,,,,,,,,,,,,,,,,,,,,,,,,,,,,,,,,,,,,,,,,,,,p_2,1,2024-05-04_09h51.46.754,speech_rate,2023.2.3,None,2024-05-04 09h52.26.022892 -0700,
1,Someday_trial_condition.wav,Someday__Someday__Maybe__Unabridged___File_069_of_116_3.wav,It's a gut feeling You can't nickname him He's a real person not a joke person You don't have to tell me Only a real person would try to shake hands with my best friend's foot Jane you're not explaining it right It was very romantic And thankfully our steaming bowl of bright yellow melted cheese with flecks of green chilies arrives Listen she says dipping a chip into the creamy depths You're the one with the brand new personality I'm still the same old Jane,"What does the narrator have, according to Jane?",A) A new recipe for dipping sauce,B) A new personality,C) A new restaurant suggestion,D) A new pair of shoes,B) A new personality,yes,30,0,0,0,0,,,,,,,,,,,,,,,,,,,,,,,,,,,,,,,,,,,,,,,,,,,,,,,,,,,,,,,,,,,,,,,,,216.89952795800000,229.74413012500000,0,,,1,12.823508541000000,12.823511541000000,0,,,0,,,,,,,,,,,,,,,,,,,,,,,,,,,,,,p_2,1,2024-05-04_09h51.46.754,speech_rate,2023.2.3,None,2024-05-04 09h52.26.022892 -0700,
2,Someday_trial_condition-5x.wav,Someday__Someday__Maybe__Unabridged___File_103_of_116_1.wav,Isn't halfway where two people usually meet Well in general maybe But tonight this is sort of a big deal for me It's my night I'm not sure you you don't think I get it Well no I mean how could you I'm having trouble making sense of this conversation James is speaking with authority but there's something wrong Something feels so wrong somehow I don't care about waving and smiling and having my picture taken with him,"How does James speak, according to the narrator?",A) With compassion,B) With grief,C) With hesitation,D) With authority,D) With authority,yes,6.2,0,1,1,1,0,0,0,0,0,0,0,0,,,,,,,,,,,,,249.69961216700000,,,,,,,229.74497075,229.754673583,229.754673583,229.754673583,237.040835292,1,[7.292067250000059],[7.29206995800007],237.04107616700000,237.05656524966700,237.05246550000000,243.26146837500000,243.24246133300000,243.25359937500000,243.512821917,243.512821917,246.83569787500000,248.15217054200000,1.1416666666666700,3.556703666999970,1,[1.32629770799997],[1.326299957999936],248.15263337500000,248.15692125000000,249.68598766700000,1,[1.5329522909999014],[1.5329550409999229],249.68672770800000,249.69961216700000,249.69961216700000,279.686065708,want,0,,,,,,,,,,,,,,,,,279.706264833,279.706264833,,,,,,,,,,,,,,,,,,,,,,,,,,p_2,1,2024-05-04_09h51.46.754,speech_rate,2023.2.3,None,2024-05-04 09h52.26.022892 -0700,
2,Someday_trial_condition-5x.wav,Someday__Someday__Maybe__Unabridged___File_103_of_116_1.wav,Isn't halfway where two people usually meet Well in general maybe But tonight this is sort of a big deal for me It's my night I'm not sure you you don't think I get it Well no I mean how could you I'm having trouble making sense of this conversation James is speaking with authority but there's something wrong Something feels so wrong somehow I don't care about waving and smiling and having my picture taken with him,"How does James speak, according to the narrator?",A) With compassion,B) With grief,C) With hesitation,D) With authority,D) With authority,yes,6.2,0,1,1,1,0,0,0,0,,,,,,,,,,,,,,,,,,,,,,,,,,,,,,,,,,,,,,,,,,,,,,,,,,,,,,,,,,,,,,,,,,,,,,,,,,,,,,,,,,,,,,,,,,,,,,,,,,,,,,p_2,1,2024-05-04_09h51.46.754,speech_rate,2023.2.3,None,2024-05-04 09h52.26.022892 -0700,
2,Someday_trial_condition-5x.wav,Someday__Someday__Maybe__Unabridged___File_103_of_116_1.wav,Isn't halfway where two people usually meet Well in general maybe But tonight this is sort of a big deal for me It's my night I'm not sure you you don't think I get it Well no I mean how could you I'm having trouble making sense of this conversation James is speaking with authority but there's something wrong Something feels so wrong somehow I don't care about waving and smiling and having my picture taken with him,"How does James speak, according to the narrator?",A) With compassion,B) With grief,C) With hesitation,D) With authority,D) With authority,yes,6.2,0,1,1,1,,,,,,,,,,,,,,,,,,,,,,,,,,,,,,,,,,,,,,,,,,,,,,,,,,,,,,,,,,,,,,,,,279.686566083,284.98806312500000,0,,,0,,,0,,,1,5.291250499999930,5.291253457999920,,,,,,,,,,,,,,,,,,,,,,,,,,,,p_2,1,2024-05-04_09h51.46.754,speech_rate,2023.2.3,None,2024-05-04 09h52.26.022892 -0700,
,Someday_47_condition-4x.wav,Someday__Someday__Maybe__Unabridged___File_024_of_116_3.wav,I almost feel as though I belong in this crowd tonight or that it's possible I could someday Absolute agency You're kidding me Look at you Dina hugs me hard when I tell her the news her perfectly polished red nails squeezing my arms Rockstar And another agency called Sparks Sparks That's Barney Sparks It's just him He's the whole office He's great He's been around a long time Dina holds her wine glass up already half empty and smiles,What does Dina do when the narrator tells her the news?,A. She hugs her,B. She shakes her hand,C. She kisses her,D. She cheers for her,A. She hugs her,no,7.515,,,,,,,,,,,,,0,0,0,0,,,,,,,,,333.25005658300000,,,,,,,,,,,,,,,334.44064208300000,334.45608474966700,334.4544020420000,341.962336125,341.9744780000000,341.985700458,342.25145058300000,342.25145058300000,344.75564775,345.82973537500000,4.383333333333330,2.7418548330000500,1,[1.0871526670000549],[1.087154833999989],,,,,,,,,,,,,,,345.83040129200000,351.7061475830000,0,,,0,,,0,,,1,5.866988666999990,5.866991167000040,,,284.9885501250000,284.99533895800000,284.99533895800000,333.1936796670000,1,[48.203764375000105],[48.203774458],333.23928450000000,333.25005658300000,333.25005658300000,333.25005658300000,334.44024483300000,1,[1.197725791000039],[1.1977285000000393],,,,,,,,,,,p_2,1,2024-05-04_09h51.46.754,speech_rate,2023.2.3,None,2024-05-04 09h52.26.022892 -0700,
,Someday_26_condition.wav,Someday__Someday__Maybe__Unabridged___File_015_of_116_2.wav,My stomach lurches The action between each line is the exact opposite of what the line is After kids are my number one priority it says rushing mom gets daughter to school just as the bell is ringing After the thing about always having time for friends looks at answering machine guiltily and decides to screen the call At the end the harried housewife stuffs an impossible amount of dirty clothes in the washer which miraculously come out clean and she gets a huge hug from her approving husband,What is the narrator's reaction to the script she's reading?,A. Her stomach lurches,B. She finds it amusing,C. She feels inspired,D. She is moved to tears,A. Her stomach lurches,yes,27.83996875,,,,,,,,,,,,,0,1,1,1,0,0,0,0,0,0,0,0,386.958406833,,,,,,,,,,,,,,,353.49908812500000,353.5317467913330,353.53029612500000,381.364729375,381.376681708,381.397051583,381.60116029200000,381.60116029200000,384.06456983300000,385.07044291700000,9.916666666666670,2.642805458000000,1,[1.0154123339999614],[1.0154145420000305],,,,,,,386.94734570800000,386.958406833,386.958406833,416.94377758300000,"washing, huge hug from approving husband. Windo washing, school kids ",0,,,,,,,,,,,,,,,,,416.964302792,416.964302792,,,,,,,,351.7070590420000,351.71296833300000,351.71296833300000,351.71296833300000,353.4988987500000,1,[1.7905825409999352],[1.7905851659999144],385.070934458,385.07618137500000,386.9465069170000,1,[1.874729708000018],[1.8747356670000954],,,,,p_2,1,2024-05-04_09h51.46.754,speech_rate,2023.2.3,None,2024-05-04 09h52.26.022892 -0700,
,Someday_26_condition.wav,Someday__Someday__Maybe__Unabridged___File_015_of_116_2.wav,My stomach lurches The action between each line is the exact opposite of what the line is After kids are my number one priority it says rushing mom gets daughter to school just as the bell is ringing After the thing about always having time for friends looks at answering machine guiltily and decides to screen the call At the end the harried housewife stuffs an impossible amount of dirty clothes in the washer which miraculously come out clean and she gets a huge hug from her approving husband,What is the narrator's reaction to the script she's reading?,A. Her stomach lurches,B. She finds it amusing,C. She feels inspired,D. She is moved to tears,A. Her stomach lurches,yes,27.83996875,,,,,,,,,,,,,0,1,1,1,0,0,0,0,,,,,,,,,,,,,,,,,,,,,,,,,,,,,,,,,,,,,,,,,,,,,,,,,,,,,,,,,,,,,,,,,,,,,,,,,,,,,,,,,,,,,,,,,,p_2,1,2024-05-04_09h51.46.754,speech_rate,2023.2.3,None,2024-05-04 09h52.26.022892 -0700,
,Someday_26_condition.wav,Someday__Someday__Maybe__Unabridged___File_015_of_116_2.wav,My stomach lurches The action between each line is the exact opposite of what the line is After kids are my number one priority it says rushing mom gets daughter to school just as the bell is ringing After the thing about always having time for friends looks at answering machine guiltily and decides to screen the call At the end the harried housewife stuffs an impossible amount of dirty clothes in the washer which miraculously come out clean and she gets a huge hug from her approving husband,What is the narrator's reaction to the script she's reading?,A. Her stomach lurches,B. She finds it amusing,C. She feels inspired,D. She is moved to tears,A. Her stomach lurches,yes,27.83996875,,,,,,,,,,,,,0,1,1,1,,,,,,,,,,,,,,,,,,,,,,,,,,,,,,,,,,,,,,,,,,,,,,,,,,,,,416.944285958,427.318727792,1,10.363856291000000,10.363858708000100,0,,,0,,,0,,,,,,,,,,,,,,,,,,,,,,,,,,,,,,p_2,1,2024-05-04_09h51.46.754,speech_rate,2023.2.3,None,2024-05-04 09h52.26.022892 -0700,
,Someday_113_condition-5x.wav,Someday__Someday__Maybe__Unabridged___File_050_of_116_0.wav,She lives I think I need a manager Why do you need a manager I thought you just got an agent I did but they aren't getting me any auditions If you have no auditions what's there to manage A manager would help me get auditions How could a manager do that when the agents can't Well managers have fewer people so they can focus just on you And why do you have an agent at all Why not just have a manager You have to have an agent They're the only ones allowed to negotiate contracts Agents are franchised managers aren't,Why does the narrator want to get a manager?,A. To help negotiate contracts,B. To get auditions,C. Because agents are expensive,D. To manage the finances,B. To get auditions,yes,5.604,,,,,,,,,,,,,0,2,2,2,0,0,0,0,0,0,0,0,441.093554542,,,,,,,,,,,,,,,429.695761083,429.7113549586670,429.70842712500000,435.30131300000000,435.31715462500000,435.3284509580000,435.59063975000000,435.59063975000000,438.043888833,439.084999208,1.2166666666666700,2.6876204169999500,1,[1.0513715419999698],[1.0513739589999886],,,,,,,441.081885875,441.093554542,441.093554542,451.336939667,what am I supposed to do,1,[10.251808666999978],[10.251811750000002],,,,,,,,,,,,,,,,,,,,,,,,427.3191834170000,427.3260959170000,427.3260959170000,427.3260959170000,429.69550708300000,1,[2.375012624999954],[2.375015416999986],439.08553637500000,439.0944752500000,441.08106591700000,1,[1.994929958000057],[1.9949329160000389],,,,,p_2,1,2024-05-04_09h51.46.754,speech_rate,2023.2.3,None,2024-05-04 09h52.26.022892 -0700,
,Someday_113_condition-5x.wav,Someday__Someday__Maybe__Unabridged___File_050_of_116_0.wav,She lives I think I need a manager Why do you need a manager I thought you just got an agent I did but they aren't getting me any auditions If you have no auditions what's there to manage A manager would help me get auditions How could a manager do that when the agents can't Well managers have fewer people so they can focus just on you And why do you have an agent at all Why not just have a manager You have to have an agent They're the only ones allowed to negotiate contracts Agents are franchised managers aren't,Why does the narrator want to get a manager?,A. To help negotiate contracts,B. To get auditions,C. Because agents are expensive,D. To manage the finances,B. To get auditions,yes,5.604,,,,,,,,,,,,,0,2,2,2,0,0,0,0,,,,,,,,,,,,,,,,,,,,,,,,,,,,,,,,,,,,,,,,,,,,,,,,,,,,,,,,,,,,,,,,,,,,,,,,,,,,,,,,,,,,,,,,,,p_2,1,2024-05-04_09h51.46.754,speech_rate,2023.2.3,None,2024-05-04 09h52.26.022892 -0700,
,Someday_113_condition-5x.wav,Someday__Someday__Maybe__Unabridged___File_050_of_116_0.wav,She lives I think I need a manager Why do you need a manager I thought you just got an agent I did but they aren't getting me any auditions If you have no auditions what's there to manage A manager would help me get auditions How could a manager do that when the agents can't Well managers have fewer people so they can focus just on you And why do you have an agent at all Why not just have a manager You have to have an agent They're the only ones allowed to negotiate contracts Agents are franchised managers aren't,Why does the narrator want to get a manager?,A. To help negotiate contracts,B. To get auditions,C. Because agents are expensive,D. To manage the finances,B. To get auditions,yes,5.604,,,,,,,,,,,,,0,2,2,2,,,,,,,,,,,,,,,,,,,,,,,,,,,,,,,,,,,,,,,,,,,,,,,,,,,,,451.337429542,453.514154167,0,,,1,2.1660839999999600,2.1660867919999900,0,,,0,,,,,,,,,,,,,,,,,,,,,,,,,,,,,,p_2,1,2024-05-04_09h51.46.754,speech_rate,2023.2.3,None,2024-05-04 09h52.26.022892 -0700,
,Someday_65_condition.wav,Someday__Someday__Maybe__Unabridged___File_032_of_116_0.wav,From the minute I walk into the wardrobe fitting in a trailer near mine I'm confused There are two giant rolling racks one full of tan trousers one stuffed with 30 or 40 identical blue shirts Oh Are there are there more people coming I ask a harried looking woman nearby She looks at me as though I've said something strange what oh the racks No those are all for you But aren't these all the same pants I say laughing a little,What does the narrator find confusing in the wardrobe fitting?,A. The lack of clothing options,B. The number of people there,C. The presence of a harried woman,D. The identical blue shirts and tan trousers,D. The identical blue shirts and tan trousers,yes,28.03996875,,,,,,,,,,,,,0,3,3,3,0,0,0,0,0,0,0,0,489.8648863330000,,,,,,,,,,,,,,,455.133017417,455.1627701663330,455.162385042,483.2148955,483.216274,483.23773625,483.45513404200000,483.45513404200000,486.419979292,488.09828433300000,10,3.1574774999999100,1,[1.6876930839999886],[1.687695291999944],,,,,,,489.850665583,489.8648863330000,489.8648863330000,519.851135292,Someone seeing to sets of rags in two baskets. Someone speaks to her and asks if they are hers,0,,,,,,,,,,,,,,,,,519.870478625,519.870478625,,,,,,,,453.514718917,453.52099454200000,453.52099454200000,453.52099454200000,455.132750042,1,[1.6172563330000003],[1.6172613330001013],488.0988083750000,488.10348283300000,489.849903208,1,[1.7506982919999245],[1.7507013749999487],,,,,p_2,1,2024-05-04_09h51.46.754,speech_rate,2023.2.3,None,2024-05-04 09h52.26.022892 -0700,
,Someday_65_condition.wav,Someday__Someday__Maybe__Unabridged___File_032_of_116_0.wav,From the minute I walk into the wardrobe fitting in a trailer near mine I'm confused There are two giant rolling racks one full of tan trousers one stuffed with 30 or 40 identical blue shirts Oh Are there are there more people coming I ask a harried looking woman nearby She looks at me as though I've said something strange what oh the racks No those are all for you But aren't these all the same pants I say laughing a little,What does the narrator find confusing in the wardrobe fitting?,A. The lack of clothing options,B. The number of people there,C. The presence of a harried woman,D. The identical blue shirts and tan trousers,D. The identical blue shirts and tan trousers,yes,28.03996875,,,,,,,,,,,,,0,3,3,3,0,0,0,0,,,,,,,,,,,,,,,,,,,,,,,,,,,,,,,,,,,,,,,,,,,,,,,,,,,,,,,,,,,,,,,,,,,,,,,,,,,,,,,,,,,,,,,,,,p_2,1,2024-05-04_09h51.46.754,speech_rate,2023.2.3,None,2024-05-04 09h52.26.022892 -0700,
,Someday_65_condition.wav,Someday__Someday__Maybe__Unabridged___File_032_of_116_0.wav,From the minute I walk into the wardrobe fitting in a trailer near mine I'm confused There are two giant rolling racks one full of tan trousers one stuffed with 30 or 40 identical blue shirts Oh Are there are there more people coming I ask a harried looking woman nearby She looks at me as though I've said something strange what oh the racks No those are all for you But aren't these all the same pants I say laughing a little,What does the narrator find confusing in the wardrobe fitting?,A. The lack of clothing options,B. The number of people there,C. The presence of a harried woman,D. The identical blue shirts and tan trousers,D. The identical blue shirts and tan trousers,yes,28.03996875,,,,,,,,,,,,,0,3,3,3,,,,,,,,,,,,,,,,,,,,,,,,,,,,,,,,,,,,,,,,,,,,,,,,,,,,,519.8516224580000,530.791763,0,,,1,10.929360375000000,10.929362959000200,0,,,0,,,,,,,,,,,,,,,,,,,,,,,,,,,,,,p_2,1,2024-05-04_09h51.46.754,speech_rate,2023.2.3,None,2024-05-04 09h52.26.022892 -0700,
,Someday_105_condition-3x.wav,Someday__Someday__Maybe__Unabridged___File_047_of_116_1.wav,Like he was a person but from another planet or something But the longer I work for him the more I see he's just this guy this very unusually gorgeous extremely muscly guy who's sort of funny and sort of smart but who's a regular person who married the girl he dated in high school and doesn't seem to know how he got here He seems totally baffled by his success and he's always asking my opinion about things like his wardrobe or whatever And I'm wondering if he's forgotten I'm just the PA on my very first movie ever,What is the narrator's perception of the person she works for?,A. He's like a person from another planet,B. He's extremely muscly and smart,C. He's very confident and self-assured,D. He's just a regular person baffled by his success,D. He's just a regular person baffled by his success,no,11.1975,,,,,,,,,,,,,0,4,4,4,,,,,,,,,530.799342,,,,,,,,,,,,,,,533.1518329580000,533.1673887496670,533.1710707080000,544.357431208,544.3692195830000,544.380424792,544.6489053750000,544.6489053750000,546.6505132920000,547.8524292080000,3.9250000000000000,2.241303791000060,1,[1.2148357080000096],[1.2148379579998618],,,,,,,,,,,,,,,547.8529001670000,553.335795667,0,,,1,5.472120208999970,5.4721226670001200,0,,,0,,,,,,,,,,,,530.792257417,530.799342,530.799342,530.799342,533.151585333,1,[2.3576086670000223],[2.3576114170000437],,,,,,,,,,,p_2,1,2024-05-04_09h51.46.754,speech_rate,2023.2.3,None,2024-05-04 09h52.26.022892 -0700,
,Someday_5_condition.wav,Someday__Someday__Maybe__Unabridged___File_005_of_116_4.wav,I am late Frank is the neighbor whose apartment we can see into from the windows in the back of our brownstone Frank leads a mysterious solitary life but one you can set a clock by He rises at eight sits in front of a computer from nine to one goes out and gets a sandwich is back at the computer from two until six thirty is gone from six thirty to eight and then watches TV from eight until eleven p m after which he goes promptly to sleep The schedule never changes No one ever comes over,"Who is Frank, and what is his daily routine?","A. Frank is the narrator's neighbor, and he works from home.","B. Frank is the narrator's roommate, and he works from home.","C. Frank is the narrator's friend, and he enjoys watching TV all day.","D. Frank is the narrator's landlord, and he travels frequently.","A. Frank is the narrator's neighbor, and he works from home.",no,29.72003125,,,,,,,,,,,,,0,5,5,5,,,,,,,,,553.3426213330000,,,,,,,,,,,,,,,554.2592984580000,554.3086681250000,554.300545625,584.0206015830000,584.0299116670000,584.051873875,584.256973708,584.256973708,588.36965975,589.9432481670000,9.933333333333330,4.288751250000130,1,[1.5869818329999816],[1.5869842499998867],,,,,,,,,,,,,,,589.9436976250000,602.9420332080000,0,,,0,,,1,12.986300167000100,12.986306292000100,0,,,,,,,,,,,,553.336269875,553.3426213330000,553.3426213330000,553.3426213330000,554.259102833,1,[0.9212047909998091],[0.9212072499999522],,,,,,,,,,,p_2,1,2024-05-04_09h51.46.754,speech_rate,2023.2.3,None,2024-05-04 09h52.26.022892 -0700,
,Someday_109_condition-5x.wav,Someday__Someday__Maybe__Unabridged___File_048_of_116_2.wav,Think about it There's a reason they keep the actual dry cleaning apparatus hidden behind all those racks of hanging clothes They don't want you to crack their code They won't let anybody in Not anybody Even rich people You know any rich people with dry cleaning machines in their house Exactly Even they still have to pick it up and drop it off like everyone else I'm pretty sure they have people who do that for them But still the dry cleaners own you You're at their mercy Clothes that have to be dry cleaned look down on you,What does the narrator talk about?,A. Acting,B. Shopping,C. How to get rich,D. Dry cleaning,D. Dry cleaning,no,5.864,,,,,,,,,,,,,0,6,6,6,,,,,,,,,602.954747583,,,,,,,,,,,,,,,606.307940417,606.3215453746670,606.3200523330000,612.1888100000000,612.190620542,612.2018930420000,612.408808833,612.408808833,615.487848,616.22229975,1,3.2552737089999900,1,[0.7475151669998468],[0.7475174579999475],,,,,,,,,,,,,,,616.2228037080000,618.9881250830000,0,,,1,2.7580817919999800,2.758084125000100,0,,,0,,,,,,,,,,,,602.9426867080000,602.954747583,602.954747583,602.954747583,606.3076633330000,1,[3.362186915999928],[3.362227415999996],,,,,,,,,,,p_2,1,2024-05-04_09h51.46.754,speech_rate,2023.2.3,None,2024-05-04 09h52.26.022892 -0700,
,Someday_112_condition-3x.wav,Someday__Someday__Maybe__Unabridged___File_049_of_116_0.wav,It was all a blur of papers coming off the roll from the fax machine and time spent rushing from one building in Manhattan to another But then we ran out of fax paper and I kept forgetting to get a new roll so I had to cold read a few times and I'll admit there were a few days when I showed up at an audition not really prepared And then there was the big audition I had prepared for a small part in a Broadway play directed by Mike Stanley But I was so nervous to meet him that I left out an entire page of the scene and he didn't ask me to read it again,What happened during the narrator's audition for a Broadway play directed by Mike Stanley?,A. The narrator performed exceptionally well,B. The narrator forgot to bring her audition materials,C. The narrator left out an entire page of the scene,D. The narrator received a callback for another audition,C. The narrator left out an entire page of the scene,yes,11.355,,,,,,,,,,,,,0,7,7,7,0,0,0,0,0,0,0,0,636.7896698750000,,,,,,,,,,,,,,,621.2105597920000,621.2231527496670,621.2283170830000,632.590096833,632.591919125,632.613780417,632.827145208,632.827145208,634.911453833,635.7683166250000,5.25,2.273758915999910,1,[0.8660144170000876],[0.8660165420001249],,,,,,,636.761955917,636.7896698750000,636.7896698750000,661.349448042,"broadway with someone called mike stanley and he asked her never to read again
",1,[24.584006042000055],[24.584009583000125],,,,,,,,,,,,,,,,,,,,,,,,618.9885913330000,618.995103167,618.995103167,618.995103167,621.2102889580000,1,[2.2196874170001593],[2.2196956669999963],635.7688625000000,635.773867458,636.761147042,1,[0.9913231660000292],[0.9913393330000417],,,,,p_2,1,2024-05-04_09h51.46.754,speech_rate,2023.2.3,None,2024-05-04 09h52.26.022892 -0700,
,Someday_112_condition-3x.wav,Someday__Someday__Maybe__Unabridged___File_049_of_116_0.wav,It was all a blur of papers coming off the roll from the fax machine and time spent rushing from one building in Manhattan to another But then we ran out of fax paper and I kept forgetting to get a new roll so I had to cold read a few times and I'll admit there were a few days when I showed up at an audition not really prepared And then there was the big audition I had prepared for a small part in a Broadway play directed by Mike Stanley But I was so nervous to meet him that I left out an entire page of the scene and he didn't ask me to read it again,What happened during the narrator's audition for a Broadway play directed by Mike Stanley?,A. The narrator performed exceptionally well,B. The narrator forgot to bring her audition materials,C. The narrator left out an entire page of the scene,D. The narrator received a callback for another audition,C. The narrator left out an entire page of the scene,yes,11.355,,,,,,,,,,,,,0,7,7,7,0,0,0,0,,,,,,,,,,,,,,,,,,,,,,,,,,,,,,,,,,,,,,,,,,,,,,,,,,,,,,,,,,,,,,,,,,,,,,,,,,,,,,,,,,,,,,,,,,p_2,1,2024-05-04_09h51.46.754,speech_rate,2023.2.3,None,2024-05-04 09h52.26.022892 -0700,
,Someday_112_condition-3x.wav,Someday__Someday__Maybe__Unabridged___File_049_of_116_0.wav,It was all a blur of papers coming off the roll from the fax machine and time spent rushing from one building in Manhattan to another But then we ran out of fax paper and I kept forgetting to get a new roll so I had to cold read a few times and I'll admit there were a few days when I showed up at an audition not really prepared And then there was the big audition I had prepared for a small part in a Broadway play directed by Mike Stanley But I was so nervous to meet him that I left out an entire page of the scene and he didn't ask me to read it again,What happened during the narrator's audition for a Broadway play directed by Mike Stanley?,A. The narrator performed exceptionally well,B. The narrator forgot to bring her audition materials,C. The narrator left out an entire page of the scene,D. The narrator received a callback for another audition,C. The narrator left out an entire page of the scene,yes,11.355,,,,,,,,,,,,,0,7,7,7,,,,,,,,,,,,,,,,,,,,,,,,,,,,,,,,,,,,,,,,,,,,,,,,,,,,,661.349955792,673.3192107500000,0,,,0,,,1,11.955981874999900,11.955985290999900,0,,,,,,,,,,,,,,,,,,,,,,,,,,,,,,p_2,1,2024-05-04_09h51.46.754,speech_rate,2023.2.3,None,2024-05-04 09h52.26.022892 -0700,
,Someday_12_condition-3x.wav,Someday__Someday__Maybe__Unabridged___File_008_of_116_4.wav,Of course the wedding's not until June but if you wanna stay at the Sands by the shore she said to book early Okay thanks Franny I'm worried about you Why Well from my initial calculations this new telephone identification system could save you upwards of 20 to 25 seconds per day I'm concerned about how you'll adjust to all the new free time Har har Also one of my students says there's a show called Friends Apparently it's a popular one Maybe you should try to apply for that,What does the narrator's father joke about regarding caller ID?,A. The invention of the telephone,B. The inconvenience of caller ID,C. The potential time saved with caller ID,D. The popularity of caller ID,C. The potential time saved with caller ID,yes,11.145,,,,,,,,,,,,,0,8,8,8,0,0,0,0,0,0,0,0,690.6551903330000,,,,,,,,,,,,,,,675.2972710420000,675.3097050416670,675.313935208,686.448573417,686.4606274170000,686.4718077080000,686.7296751670000,686.7296751670000,688.7813450420000,689.704881208,7.016666666666670,2.2848879580001300,1,[0.9327567919999638],[0.9327590829998371],,,,,,,690.64423425,690.6551903330000,690.6551903330000,720.644252542,someone was saying a product will save her money and there's a new show called friends that she sould apply for ,0,,,,,,,,,,,,,,,,,,,,,,,,,,673.319830292,673.326272042,673.326272042,673.326272042,675.2970021250000,1,[1.976383209000005],[1.9763967090000278],689.7054465000000,689.710424417,690.643563458,1,[0.937650124999891],[0.9376526669998384],,,,,p_2,1,2024-05-04_09h51.46.754,speech_rate,2023.2.3,None,2024-05-04 09h52.26.022892 -0700,
,Someday_12_condition-3x.wav,Someday__Someday__Maybe__Unabridged___File_008_of_116_4.wav,Of course the wedding's not until June but if you wanna stay at the Sands by the shore she said to book early Okay thanks Franny I'm worried about you Why Well from my initial calculations this new telephone identification system could save you upwards of 20 to 25 seconds per day I'm concerned about how you'll adjust to all the new free time Har har Also one of my students says there's a show called Friends Apparently it's a popular one Maybe you should try to apply for that,What does the narrator's father joke about regarding caller ID?,A. The invention of the telephone,B. The inconvenience of caller ID,C. The potential time saved with caller ID,D. The popularity of caller ID,C. The potential time saved with caller ID,yes,11.145,,,,,,,,,,,,,0,8,8,8,0,0,0,0,,,,,,,,,,,,,,,,,,,,,,,,,,,,,,,,,,,,,,,,,,,,,,,,,,,,,,,,,,,,,,,,,,,,,,,,,,,,,,,,,,,,,,,,,,p_2,1,2024-05-04_09h51.46.754,speech_rate,2023.2.3,None,2024-05-04 09h52.26.022892 -0700,
,Someday_12_condition-3x.wav,Someday__Someday__Maybe__Unabridged___File_008_of_116_4.wav,Of course the wedding's not until June but if you wanna stay at the Sands by the shore she said to book early Okay thanks Franny I'm worried about you Why Well from my initial calculations this new telephone identification system could save you upwards of 20 to 25 seconds per day I'm concerned about how you'll adjust to all the new free time Har har Also one of my students says there's a show called Friends Apparently it's a popular one Maybe you should try to apply for that,What does the narrator's father joke about regarding caller ID?,A. The invention of the telephone,B. The inconvenience of caller ID,C. The potential time saved with caller ID,D. The popularity of caller ID,C. The potential time saved with caller ID,yes,11.145,,,,,,,,,,,,,0,8,8,8,,,,,,,,,,,,,,,,,,,,,,,,,,,,,,,,,,,,,,,,,,,,,,,,,,,,,720.6446263750000,726.4486246250000,0,,,0,,,1,5.793114791999870,5.793117666999930,0,,,,,,,,,,,,,,,,,,,,,,,,,,,,,,p_2,1,2024-05-04_09h51.46.754,speech_rate,2023.2.3,None,2024-05-04 09h52.26.022892 -0700,
,Someday_44_condition-4x.wav,Someday__Someday__Maybe__Unabridged___File_024_of_116_0.wav,It's such a talent to be able to make people laugh but God forbid you end up on something joyless and soul crushing like that show with all the nurses Hello New York The first person I spot outside the theater is Dina smoking with a few other classmates Dina is one of the older members of our class in her 40s maybe and is still sort of famous from a show she did in the 80s called There's Pierre which I remember watching all the time growing up but she never mentions it so I don't either,What show does the narrator consider joyless and soul-crushing?,A. A show about nurses,"B. A show called ""Hello New York""",C. A show from the 80s,D. A show with Dina,A. A show about nurses,no,7.485,,,,,,,,,,,,,0,9,9,9,,,,,,,,,726.461655542,,,,,,,,,,,,,,,727.8790616250000,727.8950722496670,727.8920276670000,735.379299167,735.381678708,735.3929191250000,735.6588893330000,735.6588893330000,737.817324417,738.7292506250000,1.575,2.3997088749999900,1,[0.9212553330000901],[0.921257500000138],,,,,,,,,,,,,,,738.7297006250000,741.8456254170000,0,,,1,3.1060713330000500,3.106073832999980,0,,,0,,,,,,,,,,,,726.4492109170000,726.461655542,726.461655542,726.461655542,727.878868125,1,[1.4273559159998968],[1.4273585000000821],,,,,,,,,,,p_2,1,2024-05-04_09h51.46.754,speech_rate,2023.2.3,None,2024-05-04 09h52.26.022892 -0700,
,Someday_18_condition-5x.wav,Someday__Someday__Maybe__Unabridged___File_011_of_116_1.wav,The D train between Brooklyn and Manhattan is one of my favorite lines because at one the train emerges from underground and goes high over the river along the Manhattan Bridge Sometimes I put on my headphones and listen to music Sometimes I do the New York Times crossword puzzle And sometimes I read But no matter what else I'm doing I consider it very bad luck if I forget to look up as the train crosses over the East River even just for a second before it goes back underground It's just a superstition,Why does the narrator always look up when the D train crosses the East River?,A. To enjoy the view,B. To avoid bad luck,C. To read the subway signs,D. To see if it's raining,B. To avoid bad luck,yes,5.618,,,,,,,,,,,,,0,10,10,10,0,0,0,0,0,0,0,0,754.496374667,,,,,,,,,,,,,,,744.59721225,744.6127270416670,744.609035125,750.21934025,750.232295,750.243526875,750.4498625420000,750.4498625420000,752.612037208,753.335314833,1,2.3260234169999900,1,[0.7480514169999424],[0.748053667000022],,,,,,,754.4686026670000,754.496374667,754.496374667,763.105623125,foreground,1,[8.633626290999928],[8.633629416000076],,,,,,,,,,,,,,,,,,,,,,,,741.846088125,741.8523845,741.8523845,741.8523845,744.5969750420000,1,[2.7492343750000146],[2.7492372500000783],753.3359042500000,753.3458365000000,754.4678025000000,1,[1.130974292000019],[1.130988125000158],,,,,p_2,1,2024-05-04_09h51.46.754,speech_rate,2023.2.3,None,2024-05-04 09h52.26.022892 -0700,
,Someday_18_condition-5x.wav,Someday__Someday__Maybe__Unabridged___File_011_of_116_1.wav,The D train between Brooklyn and Manhattan is one of my favorite lines because at one the train emerges from underground and goes high over the river along the Manhattan Bridge Sometimes I put on my headphones and listen to music Sometimes I do the New York Times crossword puzzle And sometimes I read But no matter what else I'm doing I consider it very bad luck if I forget to look up as the train crosses over the East River even just for a second before it goes back underground It's just a superstition,Why does the narrator always look up when the D train crosses the East River?,A. To enjoy the view,B. To avoid bad luck,C. To read the subway signs,D. To see if it's raining,B. To avoid bad luck,yes,5.618,,,,,,,,,,,,,0,10,10,10,0,0,0,0,,,,,,,,,,,,,,,,,,,,,,,,,,,,,,,,,,,,,,,,,,,,,,,,,,,,,,,,,,,,,,,,,,,,,,,,,,,,,,,,,,,,,,,,,,p_2,1,2024-05-04_09h51.46.754,speech_rate,2023.2.3,None,2024-05-04 09h52.26.022892 -0700,
,Someday_18_condition-5x.wav,Someday__Someday__Maybe__Unabridged___File_011_of_116_1.wav,The D train between Brooklyn and Manhattan is one of my favorite lines because at one the train emerges from underground and goes high over the river along the Manhattan Bridge Sometimes I put on my headphones and listen to music Sometimes I do the New York Times crossword puzzle And sometimes I read But no matter what else I'm doing I consider it very bad luck if I forget to look up as the train crosses over the East River even just for a second before it goes back underground It's just a superstition,Why does the narrator always look up when the D train crosses the East River?,A. To enjoy the view,B. To avoid bad luck,C. To read the subway signs,D. To see if it's raining,B. To avoid bad luck,yes,5.618,,,,,,,,,,,,,0,10,10,10,,,,,,,,,,,,,,,,,,,,,,,,,,,,,,,,,,,,,,,,,,,,,,,,,,,,,763.106116708,768.565815875,0,,,1,5.448669249999970,5.448672292000080,0,,,0,,,,,,,,,,,,,,,,,,,,,,,,,,,,,,p_2,1,2024-05-04_09h51.46.754,speech_rate,2023.2.3,None,2024-05-04 09h52.26.022892 -0700,
,Someday_68_condition-3x.wav,Someday__Someday__Maybe__Unabridged___File_033_of_116_2.wav,I'm looking into a giant mirror on a wall of mirrors each framed by dozens of fluorescent light bulbs In the blinding light my face looks nothing like the face I have in Brooklyn I wonder if this is my real face or if the face I have in Brooklyn is the real one and what my queen's face might look like Um no not that I can think of I tell her I wonder if I will over time develop preferences and what they might be in regard to my face being made up,How does the narrator describe the mirror she is looking at?,A. Framed by fluorescent lights,B. Vintage,C. Broken,D. Not big enough,A. Framed by fluorescent lights,yes,11.1825,,,,,,,,,,,,,0,11,11,11,0,0,0,0,0,0,0,0,787.2477502080000,,,,,,,,,,,,,,,770.5987807920000,770.6143176246670,770.615393583,781.798817458,781.800496542,781.811741667,782.030329125,782.030329125,785.697547875,786.444329833,6.183333333333330,3.857421375000060,1,[0.7597042920001513],[0.7597066250000353],,,,,,,787.236350167,787.2477502080000,787.2477502080000,809.3847396670000,her face being made up in brooklyn and what her preference is to this happening,1,[22.145095958999946],[22.145099084000094],,,,,,,,,,,,,,,,,,,,,,,,768.5663932500000,768.5746630830000,768.5746630830000,768.5746630830000,770.59853475,1,[2.029881082999964],[2.0298836659999324],786.4448736670000,786.4493743750000,787.2355580830000,1,[0.7899895839998408],[0.7899947920000159],,,,,p_2,1,2024-05-04_09h51.46.754,speech_rate,2023.2.3,None,2024-05-04 09h52.26.022892 -0700,
,Someday_68_condition-3x.wav,Someday__Someday__Maybe__Unabridged___File_033_of_116_2.wav,I'm looking into a giant mirror on a wall of mirrors each framed by dozens of fluorescent light bulbs In the blinding light my face looks nothing like the face I have in Brooklyn I wonder if this is my real face or if the face I have in Brooklyn is the real one and what my queen's face might look like Um no not that I can think of I tell her I wonder if I will over time develop preferences and what they might be in regard to my face being made up,How does the narrator describe the mirror she is looking at?,A. Framed by fluorescent lights,B. Vintage,C. Broken,D. Not big enough,A. Framed by fluorescent lights,yes,11.1825,,,,,,,,,,,,,0,11,11,11,0,0,0,0,,,,,,,,,,,,,,,,,,,,,,,,,,,,,,,,,,,,,,,,,,,,,,,,,,,,,,,,,,,,,,,,,,,,,,,,,,,,,,,,,,,,,,,,,,p_2,1,2024-05-04_09h51.46.754,speech_rate,2023.2.3,None,2024-05-04 09h52.26.022892 -0700,
,Someday_68_condition-3x.wav,Someday__Someday__Maybe__Unabridged___File_033_of_116_2.wav,I'm looking into a giant mirror on a wall of mirrors each framed by dozens of fluorescent light bulbs In the blinding light my face looks nothing like the face I have in Brooklyn I wonder if this is my real face or if the face I have in Brooklyn is the real one and what my queen's face might look like Um no not that I can think of I tell her I wonder if I will over time develop preferences and what they might be in regard to my face being made up,How does the narrator describe the mirror she is looking at?,A. Framed by fluorescent lights,B. Vintage,C. Broken,D. Not big enough,A. Framed by fluorescent lights,yes,11.1825,,,,,,,,,,,,,0,11,11,11,,,,,,,,,,,,,,,,,,,,,,,,,,,,,,,,,,,,,,,,,,,,,,,,,,,,,809.3852435830000,813.5743513330000,0,,,1,4.180131416999980,4.18013387499991,0,,,0,,,,,,,,,,,,,,,,,,,,,,,,,,,,,,p_2,1,2024-05-04_09h51.46.754,speech_rate,2023.2.3,None,2024-05-04 09h52.26.022892 -0700,
,Someday_1_condition-2x.wav,Someday__Someday__Maybe__Unabridged___File_004_of_116_0.wav,It was really more of a gargle I tell myself although I don't know which is worse I can just picture the scene post audition That actress we brought her in and she positively belched all over the dialogue Is she any good Well I suppose you could use her if the part calls for lots of gargling Sounds of cruel laughter phones slamming into receivers 8x10 glossies being folded into paper airplanes and aimed into waste paper baskets Career over The end,What was the actress criticized for during her audition?,A. Laughing too loudly,B. Belching during the dialogue,C. Forgetting her lines,D. Wearing the wrong costume,B. Belching during the dialogue,yes,14.32,,,,,,,,,,,,,0,12,12,12,0,0,0,0,0,0,0,0,834.8362682080000,,,,,,,,,,,,,,,815.1699732500000,815.2003335413330,815.1907692500000,829.504677875,829.522180083,829.5436299580000,829.8010201670000,829.8010201670000,832.3226448330000,833.25710725,5.158333333333330,2.754864624999980,1,[0.9436488329999975],[0.9436510420000559],,,,,,,834.8251713330000,834.8362682080000,834.8362682080000,854.244289708,"a different actor belching and glossing , slamming the phone down ",1,[19.4159602499999],[19.415963375000047],,,,,,,,,,,,,,,,,,,,,,,,813.5748140000000,813.5814352920000,813.5814352920000,813.5814352920000,815.169725125,1,[1.5935012080001343],[1.593503999999939],833.2576059580000,833.266749292,834.8244012500000,1,[1.5663395840001613],[1.5663421670001298],,,,,p_2,1,2024-05-04_09h51.46.754,speech_rate,2023.2.3,None,2024-05-04 09h52.26.022892 -0700,
,Someday_1_condition-2x.wav,Someday__Someday__Maybe__Unabridged___File_004_of_116_0.wav,It was really more of a gargle I tell myself although I don't know which is worse I can just picture the scene post audition That actress we brought her in and she positively belched all over the dialogue Is she any good Well I suppose you could use her if the part calls for lots of gargling Sounds of cruel laughter phones slamming into receivers 8x10 glossies being folded into paper airplanes and aimed into waste paper baskets Career over The end,What was the actress criticized for during her audition?,A. Laughing too loudly,B. Belching during the dialogue,C. Forgetting her lines,D. Wearing the wrong costume,B. Belching during the dialogue,yes,14.32,,,,,,,,,,,,,0,12,12,12,0,0,0,0,,,,,,,,,,,,,,,,,,,,,,,,,,,,,,,,,,,,,,,,,,,,,,,,,,,,,,,,,,,,,,,,,,,,,,,,,,,,,,,,,,,,,,,,,,p_2,1,2024-05-04_09h51.46.754,speech_rate,2023.2.3,None,2024-05-04 09h52.26.022892 -0700,
,Someday_1_condition-2x.wav,Someday__Someday__Maybe__Unabridged___File_004_of_116_0.wav,It was really more of a gargle I tell myself although I don't know which is worse I can just picture the scene post audition That actress we brought her in and she positively belched all over the dialogue Is she any good Well I suppose you could use her if the part calls for lots of gargling Sounds of cruel laughter phones slamming into receivers 8x10 glossies being folded into paper airplanes and aimed into waste paper baskets Career over The end,What was the actress criticized for during her audition?,A. Laughing too loudly,B. Belching during the dialogue,C. Forgetting her lines,D. Wearing the wrong costume,B. Belching during the dialogue,yes,14.32,,,,,,,,,,,,,0,12,12,12,,,,,,,,,,,,,,,,,,,,,,,,,,,,,,,,,,,,,,,,,,,,,,,,,,,,,854.2448098330000,858.2963823330000,0,,,1,4.040564500000070,4.0405671660000700,0,,,0,,,,,,,,,,,,,,,,,,,,,,,,,,,,,,p_2,1,2024-05-04_09h51.46.754,speech_rate,2023.2.3,None,2024-05-04 09h52.26.022892 -0700,
,Someday_84_condition-5x.wav,Someday__Someday__Maybe__Unabridged___File_038_of_116_0.wav,The offices of absolute artists are on the 32nd floor of a sleek glass high rise building on 56th Street near Fifth Avenue in the middle of countless stores and apartments I could never afford I come to this part of town only once in a while to go to Central Park although I like our park in Brooklyn just as much The streets are wider here and the buildings are much taller than downtown and lots of people are wearing suits and carrying briefcases and crossing the street dangerously in the middle of the block,Where is Absolute Artists' office located?,A. In Brooklyn,B. On Fifth Avenue,C. By Central Park,D. On the 32nd floor of a high-rise,D. On the 32nd floor of a high-rise,yes,5.852,,,,,,,,,,,,,0,13,13,13,0,0,0,0,0,0,0,0,869.522571667,,,,,,,,,,,,,,,859.953919542,859.9692866666670,859.966045875,865.8072964580000,865.823313417,865.8345570420000,866.0795600830000,866.0795600830000,867.902134792,868.6365505000000,1.025,2.039781291000050,1,[0.7470923749999656],[0.747094708999839],,,,,,,869.5119003330000,869.522571667,869.522571667,873.8527495420000,,1,[4.337587917000064],[4.337590916999943],,,,,,,,,,,,,,,,,,,,,,,,858.296967167,858.318877167,858.318877167,858.318877167,859.9536491670000,1,[1.6560830419998638],[1.6560855839998112],868.6371200420000,868.6417222080000,869.511210917,1,[0.8735400000000482],[0.8735427090000485],,,,,p_2,1,2024-05-04_09h51.46.754,speech_rate,2023.2.3,None,2024-05-04 09h52.26.022892 -0700,
,Someday_84_condition-5x.wav,Someday__Someday__Maybe__Unabridged___File_038_of_116_0.wav,The offices of absolute artists are on the 32nd floor of a sleek glass high rise building on 56th Street near Fifth Avenue in the middle of countless stores and apartments I could never afford I come to this part of town only once in a while to go to Central Park although I like our park in Brooklyn just as much The streets are wider here and the buildings are much taller than downtown and lots of people are wearing suits and carrying briefcases and crossing the street dangerously in the middle of the block,Where is Absolute Artists' office located?,A. In Brooklyn,B. On Fifth Avenue,C. By Central Park,D. On the 32nd floor of a high-rise,D. On the 32nd floor of a high-rise,yes,5.852,,,,,,,,,,,,,0,13,13,13,0,0,0,0,,,,,,,,,,,,,,,,,,,,,,,,,,,,,,,,,,,,,,,,,,,,,,,,,,,,,,,,,,,,,,,,,,,,,,,,,,,,,,,,,,,,,,,,,,p_2,1,2024-05-04_09h51.46.754,speech_rate,2023.2.3,None,2024-05-04 09h52.26.022892 -0700,
,Someday_84_condition-5x.wav,Someday__Someday__Maybe__Unabridged___File_038_of_116_0.wav,The offices of absolute artists are on the 32nd floor of a sleek glass high rise building on 56th Street near Fifth Avenue in the middle of countless stores and apartments I could never afford I come to this part of town only once in a while to go to Central Park although I like our park in Brooklyn just as much The streets are wider here and the buildings are much taller than downtown and lots of people are wearing suits and carrying briefcases and crossing the street dangerously in the middle of the block,Where is Absolute Artists' office located?,A. In Brooklyn,B. On Fifth Avenue,C. By Central Park,D. On the 32nd floor of a high-rise,D. On the 32nd floor of a high-rise,yes,5.852,,,,,,,,,,,,,0,13,13,13,,,,,,,,,,,,,,,,,,,,,,,,,,,,,,,,,,,,,,,,,,,,,,,,,,,,,873.8531645,876.1213259580000,0,,,0,,,0,,,1,2.257587249999920,2.2575906669999300,,,,,,,,,,,,,,,,,,,,,,,,,,,,p_2,1,2024-05-04_09h51.46.754,speech_rate,2023.2.3,None,2024-05-04 09h52.26.022892 -0700,
,Someday_78_condition-2x.wav,Someday__Someday__Maybe__Unabridged___File_036_of_116_0.wav,And I would like to help you get started So he claps his hands together once for emphasis as if he's just pulled a rabbit out of his hat and wants to make sure the audience sees it I'm stunned He just said he wants to work with me I thought it would be so much harder to get anyone in the professional world to say that ever An actual real life agent wants to represent me I don't have to do this alone I'm shocked What is that,What is the narrator's reaction to the agent's offer?,A. She is excited and grateful,B. She is stunned,C. She is uninterested in the offer,D. She expected the offer,B. She is stunned,yes,14.085,,,,,,,,,,,,,0,14,14,14,0,0,0,0,0,0,0,0,895.4733134170000,,,,,,,,,,,,,,,878.1945532080000,878.2105183746670,878.214127667,892.294526375,892.2989770000000,892.3097238750000,892.515987167,892.515987167,894.020357458,894.688876917,9.091666666666670,1.6828145000001800,1,[0.6815680830000019],[0.6815704160001133],,,,,,,895.4621507080000,895.4733134170000,895.4733134170000,925.4621662080000,the rabbit is out the hat. the agent revealed that he wants to work with her and she's shock an actual agent wants to work with ,0,,,,,,,,,,,,,,,,,,,,,,,,,,876.1218650830000,876.12903175,876.12903175,876.12903175,878.194354792,1,[2.0708458340000107],[2.070848500000011],894.68939125,894.6941923750000,895.461361875,1,[0.771493583000165],[0.7714961660001336],,,,,p_2,1,2024-05-04_09h51.46.754,speech_rate,2023.2.3,None,2024-05-04 09h52.26.022892 -0700,
,Someday_78_condition-2x.wav,Someday__Someday__Maybe__Unabridged___File_036_of_116_0.wav,And I would like to help you get started So he claps his hands together once for emphasis as if he's just pulled a rabbit out of his hat and wants to make sure the audience sees it I'm stunned He just said he wants to work with me I thought it would be so much harder to get anyone in the professional world to say that ever An actual real life agent wants to represent me I don't have to do this alone I'm shocked What is that,What is the narrator's reaction to the agent's offer?,A. She is excited and grateful,B. She is stunned,C. She is uninterested in the offer,D. She expected the offer,B. She is stunned,yes,14.085,,,,,,,,,,,,,0,14,14,14,0,0,0,0,,,,,,,,,,,,,,,,,,,,,,,,,,,,,,,,,,,,,,,,,,,,,,,,,,,,,,,,,,,,,,,,,,,,,,,,,,,,,,,,,,,,,,,,,,p_2,1,2024-05-04_09h51.46.754,speech_rate,2023.2.3,None,2024-05-04 09h52.26.022892 -0700,
,Someday_78_condition-2x.wav,Someday__Someday__Maybe__Unabridged___File_036_of_116_0.wav,And I would like to help you get started So he claps his hands together once for emphasis as if he's just pulled a rabbit out of his hat and wants to make sure the audience sees it I'm stunned He just said he wants to work with me I thought it would be so much harder to get anyone in the professional world to say that ever An actual real life agent wants to represent me I don't have to do this alone I'm shocked What is that,What is the narrator's reaction to the agent's offer?,A. She is excited and grateful,B. She is stunned,C. She is uninterested in the offer,D. She expected the offer,B. She is stunned,yes,14.085,,,,,,,,,,,,,0,14,14,14,,,,,,,,,,,,,,,,,,,,,,,,,,,,,,,,,,,,,,,,,,,,,,,,,,,,,925.462520583,933.014211125,0,,,1,7.538532875000100,7.538535583000110,0,,,0,,,,,,,,,,,,,,,,,,,,,,,,,,,,,,p_2,1,2024-05-04_09h51.46.754,speech_rate,2023.2.3,None,2024-05-04 09h52.26.022892 -0700,
,Someday_40_condition-2x.wav,Someday__Someday__Maybe__Unabridged___File_021_of_116_3.wav,Aren't you cold It's James Franklin the last person I want to see right now Nothing could make me feel worse after what happened tonight than to be reminded that a guy I gushed all over got my phone number but never called me Even after I learned that he and Penelope were some sort of couple I held my breath every day for the last two weeks while waiting for the machine to rewind hoping he'd left a message but he never did James smiles at me and stamps his feet rubbing his hands together and blowing on them,Why does the narrator feel embarrassed to see James Franklin?,A. Because he got her phone number but never called,B. Because he is dating Penelope,C. Because he reminds her of a bad experience,D. Because he is unfriendly,A. Because he got her phone number but never called,no,14.14496875,,,,,,,,,,,,,0,15,15,15,,,,,,,,,933.021681,,,,,,,,,,,,,,,934.2806191250000,934.2962087496670,934.299388333,948.4751456250000,948.445446833,948.467492125,948.739903208,948.739903208,952.2569182080000,952.969359833,10,3.7617342920000300,1,[0.7253682919999846],[0.7253704999998263],,,,,,,,,,,,,,,952.969784417,958.6497407920000,1,5.6710499170001200,5.67105212499996,0,,,0,,,0,,,,,,,,,,,,933.0146763330000,933.021681,933.021681,933.021681,934.2804215830000,1,[1.2643544170000496],[1.2643570420000287],,,,,,,,,,,p_2,1,2024-05-04_09h51.46.754,speech_rate,2023.2.3,None,2024-05-04 09h52.26.022892 -0700,
,Someday_50_condition-5x.wav,Someday__Someday__Maybe__Unabridged___File_025_of_116_3.wav,It was a high concept half hour pilot he said Cutting edge was the exact phrase he used I believe He said it had taken some convincing to get me an audition since I had no television experience but they'd agreed to see me So I read the script and it didn't seem like a TV show to me but I'm used to reading plays where anything can happen in the world of someone's memory or whatever You were used to reading things that were abstract Leighton says Or imaginative not totally set in reality yes So I'm picturing what it could be if done correctly,What was the description given for the pilot in the story?,A. A low-budget independent film,B. A high-concept half-hour pilot,C. A traditional TV show format,D. A full-length feature film,B. A high-concept half-hour pilot,yes,5.956,,,,,,,,,,,,,0,16,16,16,0,0,0,0,0,0,0,0,972.1464455830000,,,,,,,,,,,,,,,961.865740708,961.8812610416670,961.877027125,967.832297125,967.844029375,967.8552440830000,968.062208542,968.062208542,969.9601048750000,971.0722915830000,1.0,2.6468877090001100,1,[1.1213085000001684],[1.1213110410001264],,,,,,,972.136199458,972.1464455830000,972.1464455830000,983.7185536250000,"quickly, wear",1,[11.57924283300008],[11.579246208000086],,,,,,,,,,,,,,,,,,,,,,,,958.6501826670000,958.656458375,958.656458375,958.656458375,961.8655134580000,1,[3.213952124999878],[3.213954708999836],971.072810333,971.077354625,972.135400375,1,[1.061996542000088],[1.0619993340001201],,,,,p_2,1,2024-05-04_09h51.46.754,speech_rate,2023.2.3,None,2024-05-04 09h52.26.022892 -0700,
,Someday_50_condition-5x.wav,Someday__Someday__Maybe__Unabridged___File_025_of_116_3.wav,It was a high concept half hour pilot he said Cutting edge was the exact phrase he used I believe He said it had taken some convincing to get me an audition since I had no television experience but they'd agreed to see me So I read the script and it didn't seem like a TV show to me but I'm used to reading plays where anything can happen in the world of someone's memory or whatever You were used to reading things that were abstract Leighton says Or imaginative not totally set in reality yes So I'm picturing what it could be if done correctly,What was the description given for the pilot in the story?,A. A low-budget independent film,B. A high-concept half-hour pilot,C. A traditional TV show format,D. A full-length feature film,B. A high-concept half-hour pilot,yes,5.956,,,,,,,,,,,,,0,16,16,16,0,0,0,0,,,,,,,,,,,,,,,,,,,,,,,,,,,,,,,,,,,,,,,,,,,,,,,,,,,,,,,,,,,,,,,,,,,,,,,,,,,,,,,,,,,,,,,,,,p_2,1,2024-05-04_09h51.46.754,speech_rate,2023.2.3,None,2024-05-04 09h52.26.022892 -0700,
,Someday_50_condition-5x.wav,Someday__Someday__Maybe__Unabridged___File_025_of_116_3.wav,It was a high concept half hour pilot he said Cutting edge was the exact phrase he used I believe He said it had taken some convincing to get me an audition since I had no television experience but they'd agreed to see me So I read the script and it didn't seem like a TV show to me but I'm used to reading plays where anything can happen in the world of someone's memory or whatever You were used to reading things that were abstract Leighton says Or imaginative not totally set in reality yes So I'm picturing what it could be if done correctly,What was the description given for the pilot in the story?,A. A low-budget independent film,B. A high-concept half-hour pilot,C. A traditional TV show format,D. A full-length feature film,B. A high-concept half-hour pilot,yes,5.956,,,,,,,,,,,,,0,16,16,16,,,,,,,,,,,,,,,,,,,,,,,,,,,,,,,,,,,,,,,,,,,,,,,,,,,,,983.719050792,985.3442625,1,1.6150442499999800,1.61504679199993,0,,,0,,,0,,,,,,,,,,,,,,,,,,,,,,,,,,,,,,p_2,1,2024-05-04_09h51.46.754,speech_rate,2023.2.3,None,2024-05-04 09h52.26.022892 -0700,
,Someday_106_condition.wav,Someday__Someday__Maybe__Unabridged___File_047_of_116_2.wav,Someone goes for him Someone does everything for him And he seems miserable He reads everything they write about him in the magazines and he gets so upset When work is over and his wife is back in LA he doesn't seem to know what to do with himself And he goes out with the guys from the crew who aren't even really his friends And they get drunk and it ends up on page six I keep thinking someone should be helping him in a different way or there should be some sort of manual for him because he just doesn't seem to be enjoying any of it,How does the person the narrator works for behave when he's not working?,A. He enjoys his free time and socializes with friends,B. He reads about himself in magazines and gets upset,C. He spends time with his wife in LA,D. He writes a manual for himself to navigate success,B. He reads about himself in magazines and gets upset,no,28.55,,,,,,,,,,,,,0,17,17,17,,,,,,,,,985.351764167,,,,,,,,,,,,,,,986.743926375,986.7764946253330,986.774906458,1015.328476792,1015.330256833,1015.351931833,1015.5738202500000,1015.5738202500000,1017.3501014170000,1018.672964333,10,1.9734076249999400,1,[1.3325594169998567],[1.3325616249999257],,,,,,,,,,,,,,,1018.673397542,1022.1695540000000,0,,,1,3.486233916999940,3.48623624999982,0,,,0,,,,,,,,,,,,985.34479725,985.351764167,985.351764167,985.351764167,986.7437210830000,1,[1.3973291669999526],[1.3973318749999635],,,,,,,,,,,p_2,1,2024-05-04_09h51.46.754,speech_rate,2023.2.3,None,2024-05-04 09h52.26.022892 -0700,
,Someday_10_condition-3x.wav,Someday__Someday__Maybe__Unabridged___File_008_of_116_2.wav,I've worn this combination so many times before that today my all black outfit feels a little boring a little blah What would Jane do I think to myself and pull a chunky brown leather belt from the top shelf of the closet slinging it low around my hips Finally taking weather and product into consideration I take the top part of my hair and tie it into a small black velvet scrunchie on top of my head The phone begins to ring from its place on the landing between my room and Jane's Hi Dad,What does the narrator wear to their class after the audition?,A. A black dress,B. A white t-shirt,C. A red skirt,D. A brown leather belt,D. A brown leather belt,no,10.8675,,,,,,,,,,,,,0,18,18,18,,,,,,,,,1022.177561083,,,,,,,,,,,,,,,1024.416638125,1024.4295015416700,1024.431584792,1035.296481958,1035.30032575,1035.311525333,1035.516303875,1035.516303875,1038.295435625,1042.3417185,8.8,5.4783032499999500,1,[4.0600327500001185],[4.0600350830000025],,,,,,,,,,,,,,,1042.342154417,1045.929557375,1,3.5796094160000400,3.579611874999960,0,,,0,,,0,,,,,,,,,,,,1022.1700242080000,1022.177561083,1022.177561083,1022.177561083,1024.416390583,1,[2.2456962500000373],[2.245702415999858],,,,,,,,,,,p_2,1,2024-05-04_09h51.46.754,speech_rate,2023.2.3,None,2024-05-04 09h52.26.022892 -0700,
,Someday_39_condition.wav,Someday__Someday__Maybe__Unabridged___File_021_of_116_1.wav,People who are admired for holding it together are not people who are about to get agents They're people who are recovering from cancer or undergoing a murder trial And I dropped a section I add hoping he'll say he didn't notice Yeah I know but I only know because I'm obsessed with that guy's work No one will dock you for that It's not exactly a glowing review but he doesn't seem totally horrified Still he's avoiding the thing I most want to know But when I fell I mean how bad was it,What does the narrator hope the person they are talking to will say?,A. That he didn't notice the mistake,B. That he noticed the dropped section,C. That he wants to be an agent,D. That he's obsessed with the narrator's work,A. That he didn't notice the mistake,no,29.17996875,,,,,,,,,,,,,0,19,19,19,,,,,,,,,1045.936070833,,,,,,,,,,,,,,,1047.5145427080000,1047.5467505413300,1047.546386125,1076.732188625,1076.733974583,1076.7561795000000,1076.968210125,1076.968210125,1079.10298775,1079.8706935,9.716666666666670,2.3225144580001100,1,[0.7768893750001098],[0.7768918330000361],,,,,,,,,,,,,,,1079.871136125,1086.832078708,1,6.951640624999980,6.951643041999890,0,,,0,,,0,,,,,,,,,,,,1045.930010708,1045.936070833,1045.936070833,1045.936070833,1047.514303208,1,[1.5829384589999336],[1.582941124999934],,,,,,,,,,,p_2,1,2024-05-04_09h51.46.754,speech_rate,2023.2.3,None,2024-05-04 09h52.26.022892 -0700,
,Someday_102_condition.wav,Someday__Someday__Maybe__Unabridged___File_045_of_116_0.wav,Well it's just mainly a gag you know says the man in glasses a gag I repeat Yes a running gag like how she laughs on the nanny But we don't want it to sound anything like her laugh the man in the back of the room says emphatically Yes of course it's a laugh That's all her own just a girl who laughs funny for no particular reason the man with glasses says Okay Thanks and sorry but what do I do do,What is the character's laugh intended to be in the audition scene?,A. A running gag,B. A natural laugh,C. A villain's laugh,D. A serious and dramatic laugh,A. A running gag,no,28.03,,,,,,,,,,,,,0,20,20,20,,,,,,,,,1086.838439875,,,,,,,,,,,,,,,1088.61709025,1088.6492579163300,1088.6469135,1116.674109,1116.6860288750000,1116.707342417,1116.908254125,1116.908254125,1119.884655042,1120.769271917,10,3.15293725000015,1,[0.8938162499998725],[0.8938186660000156],,,,,,,,,,,,,,,1120.769717917,1128.045854333,0,,,1,7.26751924999985,7.267521999999870,0,,,0,,,,,,,,,,,,1086.832530375,1086.838439875,1086.838439875,1086.838439875,1088.616818917,1,[1.7829319170000417],[1.782934750000095],,,,,,,,,,,p_2,1,2024-05-04_09h51.46.754,speech_rate,2023.2.3,None,2024-05-04 09h52.26.022892 -0700,
,Someday_90_condition-2x.wav,Someday__Someday__Maybe__Unabridged___File_039_of_116_3.wav,There are so many to choose from I wonder if this is part of the audition and the chairs are a test I wonder if I'm being watched on a hidden camera I wonder if I should be worried about the alarming frequency that the concept of being watched on a hidden camera occurs to me But if I were being watched what chair would the people sitting behind the monitor in the hidden control room consider the right one Does Absolute Artists work only with people who choose to sit at the head of the table Does that say I'm a star Is that the kind of boldness they're looking for,Why does the narrator wonder if the chairs are part of the audition?,A. She thinks the chairs are being watched,B. She believes the chairs are a test,C. She wants to find the right chair to sit in,D. All of the above,D. All of the above,yes,14.855,,,,,,,,,,,,,0,21,21,21,0,0,0,0,0,0,0,0,1153.219182708,,,,,,,,,,,,,,,1129.860468958,1129.8764354166700,1129.881240667,1144.736087125,1144.738744708,1144.760186833,1144.971847917,1144.971847917,1149.312719792,1152.275922667,5.116666666666670,6.9902048340000000,1,[2.972357792000139],[2.9723605420001604],,,,,,,1153.191850708,1153.219182708,1153.219182708,1183.194759167,"i'm a star, is that the kind of boldness they're looking for. Sitting on a chair",0,,,,,,,,,,,,,,,,,,,,,,,,,,1128.04643325,1128.053495292,1128.053495292,1128.053495292,1129.860275667,1,[1.8120877920000567],[1.8120904170000358],1152.276439,1152.28495125,1153.191159042,1,[0.9141087499999685],[0.9141113329999371],,,,,p_2,1,2024-05-04_09h51.46.754,speech_rate,2023.2.3,None,2024-05-04 09h52.26.022892 -0700,
,Someday_90_condition-2x.wav,Someday__Someday__Maybe__Unabridged___File_039_of_116_3.wav,There are so many to choose from I wonder if this is part of the audition and the chairs are a test I wonder if I'm being watched on a hidden camera I wonder if I should be worried about the alarming frequency that the concept of being watched on a hidden camera occurs to me But if I were being watched what chair would the people sitting behind the monitor in the hidden control room consider the right one Does Absolute Artists work only with people who choose to sit at the head of the table Does that say I'm a star Is that the kind of boldness they're looking for,Why does the narrator wonder if the chairs are part of the audition?,A. She thinks the chairs are being watched,B. She believes the chairs are a test,C. She wants to find the right chair to sit in,D. All of the above,D. All of the above,yes,14.855,,,,,,,,,,,,,0,21,21,21,0,0,0,0,,,,,,,,,,,,,,,,,,,,,,,,,,,,,,,,,,,,,,,,,,,,,,,,,,,,,,,,,,,,,,,,,,,,,,,,,,,,,,,,,,,,,,,,,,p_2,1,2024-05-04_09h51.46.754,speech_rate,2023.2.3,None,2024-05-04 09h52.26.022892 -0700,
,Someday_90_condition-2x.wav,Someday__Someday__Maybe__Unabridged___File_039_of_116_3.wav,There are so many to choose from I wonder if this is part of the audition and the chairs are a test I wonder if I'm being watched on a hidden camera I wonder if I should be worried about the alarming frequency that the concept of being watched on a hidden camera occurs to me But if I were being watched what chair would the people sitting behind the monitor in the hidden control room consider the right one Does Absolute Artists work only with people who choose to sit at the head of the table Does that say I'm a star Is that the kind of boldness they're looking for,Why does the narrator wonder if the chairs are part of the audition?,A. She thinks the chairs are being watched,B. She believes the chairs are a test,C. She wants to find the right chair to sit in,D. All of the above,D. All of the above,yes,14.855,,,,,,,,,,,,,0,21,21,21,,,,,,,,,,,,,,,,,,,,,,,,,,,,,,,,,,,,,,,,,,,,,,,,,,,,,1183.195098542,1193.788255208,0,,,0,,,0,,,1,10.582657375000100,10.582660208000100,,,,,,,,,,,,,,,,,,,,,,,,,,,,p_2,1,2024-05-04_09h51.46.754,speech_rate,2023.2.3,None,2024-05-04 09h52.26.022892 -0700,
,Someday_62_condition.wav,Someday__Someday__Maybe__Unabridged___File_030_of_116_1.wav,Maybe he'd think I'd played the part dozens of times That would teach the anonymous voice to respect me At the Old Horse Theater in Princeton New Jersey he said Did I detect a hint of sarcasm in his voice OK thanks There was a silence on the other end Any other details Well it's none of my business but I'd never heard of it So I looked it up and that theater doesn't seem to exist,Why did he look up the Old Horse Theater?,A. To have some information about it,B. To apply for a role there,C. To learn about its upcoming shows,"D. To plan a trip to Princeton, New Jersey",A. To have some information about it,yes,28.7,,,,,,,,,,,,,0,22,22,22,0,0,0,0,0,0,0,0,1228.318080167,,,,,,,,,,,,,,,1195.457009917,1195.4885812503300,1195.488891625,1224.174973917,1224.191980458,1224.2133893750000,1224.475752458,1224.475752458,1226.2168637080000,1227.090676417,10,1.9757735000000600,1,[0.8828446669999721],[0.8828470000000834],,,,,,,1228.30684875,1228.318080167,1228.318080167,1258.3085075000000,she is wondering if he respects her. she asks for any other details. He says that a theater doesn't ecist,0,,,,,,,,,,,,,,,,,,,,,,,,,,1193.788722125,1193.7946824580000,1193.7946824580000,1193.7946824580000,1195.455819792,1,[1.6657071669999368],[1.6657099169999583],1227.091239208,1227.0959352500000,1228.3062977920000,1,[1.2145799170000373],[1.2145824169999742],,,,,p_2,1,2024-05-04_09h51.46.754,speech_rate,2023.2.3,None,2024-05-04 09h52.26.022892 -0700,
,Someday_62_condition.wav,Someday__Someday__Maybe__Unabridged___File_030_of_116_1.wav,Maybe he'd think I'd played the part dozens of times That would teach the anonymous voice to respect me At the Old Horse Theater in Princeton New Jersey he said Did I detect a hint of sarcasm in his voice OK thanks There was a silence on the other end Any other details Well it's none of my business but I'd never heard of it So I looked it up and that theater doesn't seem to exist,Why did he look up the Old Horse Theater?,A. To have some information about it,B. To apply for a role there,C. To learn about its upcoming shows,"D. To plan a trip to Princeton, New Jersey",A. To have some information about it,yes,28.7,,,,,,,,,,,,,0,22,22,22,0,0,0,0,,,,,,,,,,,,,,,,,,,,,,,,,,,,,,,,,,,,,,,,,,,,,,,,,,,,,,,,,,,,,,,,,,,,,,,,,,,,,,,,,,,,,,,,,,p_2,1,2024-05-04_09h51.46.754,speech_rate,2023.2.3,None,2024-05-04 09h52.26.022892 -0700,
,Someday_62_condition.wav,Someday__Someday__Maybe__Unabridged___File_030_of_116_1.wav,Maybe he'd think I'd played the part dozens of times That would teach the anonymous voice to respect me At the Old Horse Theater in Princeton New Jersey he said Did I detect a hint of sarcasm in his voice OK thanks There was a silence on the other end Any other details Well it's none of my business but I'd never heard of it So I looked it up and that theater doesn't seem to exist,Why did he look up the Old Horse Theater?,A. To have some information about it,B. To apply for a role there,C. To learn about its upcoming shows,"D. To plan a trip to Princeton, New Jersey",A. To have some information about it,yes,28.7,,,,,,,,,,,,,0,22,22,22,,,,,,,,,,,,,,,,,,,,,,,,,,,,,,,,,,,,,,,,,,,,,,,,,,,,,1258.308850125,1269.776951542,1,11.458686458999900,11.458689083999800,0,,,0,,,0,,,,,,,,,,,,,,,,,,,,,,,,,,,,,,p_2,1,2024-05-04_09h51.46.754,speech_rate,2023.2.3,None,2024-05-04 09h52.26.022892 -0700,
,Someday_87_condition-4x.wav,Someday__Someday__Maybe__Unabridged___File_039_of_116_0.wav,The reception area is a soothing soft grey Everything is plush and velvet The carpet looks like shiny grey silk and the sofa is a silvery suede that appears freshly brushed as though no one has ever sat on it There's a long reception desk behind which sit two of the most beautiful people I have ever seen also swathed in grey The perfect specimen male is reading a script and the perfect specimen female is on a headset talking to someone in a British accent,How does the narrator describe the reception area of Absolute Artists?,A. It's brightly colored,B. It's cold and uninviting,C. It's plush and soothing,D. It's chaotic and messy,C. It's plush and soothing,yes,7.12,,,,,,,,,,,,,0,23,23,23,0,0,0,0,0,0,0,0,1283.5563032080000,,,,,,,,,,,,,,,1272.027321792,1272.0428079586700,1272.0403375,1279.149793667,1279.16492225,1279.1761215000000,1279.438805,1279.438805,1281.978555542,1282.693766625,2.1833333333333300,2.7763683329999400,1,[0.7245570830000361],[0.7245593750001262],,,,,,,1283.54524825,1283.5563032080000,1283.5563032080000,1301.745981542,seude. two of the most beautiful people she's ever met,1,[18.197701542000004],[18.197705541999994],,,,,,,,,,,,,,,,,,,,,,,,1269.777478958,1269.7830591670000,1269.7830591670000,1269.7830591670000,1272.027067,1,[2.24909875000003],[2.2491013750000093],1282.694255667,1282.698963125,1283.5444855,1,[0.8497276250000141],[0.8497301669999615],,,,,p_2,1,2024-05-04_09h51.46.754,speech_rate,2023.2.3,None,2024-05-04 09h52.26.022892 -0700,
,Someday_87_condition-4x.wav,Someday__Someday__Maybe__Unabridged___File_039_of_116_0.wav,The reception area is a soothing soft grey Everything is plush and velvet The carpet looks like shiny grey silk and the sofa is a silvery suede that appears freshly brushed as though no one has ever sat on it There's a long reception desk behind which sit two of the most beautiful people I have ever seen also swathed in grey The perfect specimen male is reading a script and the perfect specimen female is on a headset talking to someone in a British accent,How does the narrator describe the reception area of Absolute Artists?,A. It's brightly colored,B. It's cold and uninviting,C. It's plush and soothing,D. It's chaotic and messy,C. It's plush and soothing,yes,7.12,,,,,,,,,,,,,0,23,23,23,0,0,0,0,,,,,,,,,,,,,,,,,,,,,,,,,,,,,,,,,,,,,,,,,,,,,,,,,,,,,,,,,,,,,,,,,,,,,,,,,,,,,,,,,,,,,,,,,,p_2,1,2024-05-04_09h51.46.754,speech_rate,2023.2.3,None,2024-05-04 09h52.26.022892 -0700,
,Someday_87_condition-4x.wav,Someday__Someday__Maybe__Unabridged___File_039_of_116_0.wav,The reception area is a soothing soft grey Everything is plush and velvet The carpet looks like shiny grey silk and the sofa is a silvery suede that appears freshly brushed as though no one has ever sat on it There's a long reception desk behind which sit two of the most beautiful people I have ever seen also swathed in grey The perfect specimen male is reading a script and the perfect specimen female is on a headset talking to someone in a British accent,How does the narrator describe the reception area of Absolute Artists?,A. It's brightly colored,B. It's cold and uninviting,C. It's plush and soothing,D. It's chaotic and messy,C. It's plush and soothing,yes,7.12,,,,,,,,,,,,,0,23,23,23,,,,,,,,,,,,,,,,,,,,,,,,,,,,,,,,,,,,,,,,,,,,,,,,,,,,,1301.746429458,1305.805249583,0,,,0,,,1,4.049091583000060,4.049094250000050,0,,,,,,,,,,,,,,,,,,,,,,,,,,,,,,p_2,1,2024-05-04_09h51.46.754,speech_rate,2023.2.3,None,2024-05-04 09h52.26.022892 -0700,
,Someday_49_condition-2x.wav,Someday__Someday__Maybe__Unabridged___File_025_of_116_2.wav,Ancient history Dina says but she's smiling And what about ever since I saw Dina in class I've wanted to ask about the series she did And tonight with a drink in my hand and the giddy flush of the day behind me I'm finally feeling bold enough to bring it up The show she says sharing a look with Leighton who smiles sympathetically Sorry I don't mean to It's fine Dina says shaking her head You I don't mind telling,What is Dina's reaction to the narrator's question?,A. She feels uncomfortable,B. She doesn't mind talking about it,C. She gets angry,D. She is happy to receive the question,B. She doesn't mind talking about it,no,14.155,,,,,,,,,,,,,0,24,24,24,,,,,,,,,1305.813063375,,,,,,,,,,,,,,,1306.5442526670000,1306.5598383746700,1306.56288025,1320.7128009580000,1320.716863833,1320.727236583,1320.96772825,1320.96772825,1323.978151625,1324.662879917,9.575,3.211004374999900,1,[0.7095988339999622],[0.7096012089998567],,,,,,,,,,,,,,,1324.663273958,1327.782810542,0,,,1,3.1112476670000400,3.111250458000090,0,,,0,,,,,,,,,,,,1305.805789583,1305.813063375,1305.813063375,1305.813063375,1306.5440773330000,1,[0.7367031250000764],[0.7367057500000556],,,,,,,,,,,p_2,1,2024-05-04_09h51.46.754,speech_rate,2023.2.3,None,2024-05-04 09h52.26.022892 -0700,
,Someday_2_condition-4x.wav,Someday__Someday__Maybe__Unabridged___File_004_of_116_1.wav,Successful actresses are disciplined people who wake up early to focus on their craft I told myself even ones who still make their living as waitresses like me I started leaving the alarm clock on the landing between Jane's room and mine so I'd have to actually get out of bed in order to turn it off instead of hitting snooze over and over like I normally do I also resolved to quit smoking again to stop losing purses wallets and umbrellas and to not eat any more cheese puffs not even on special occasions,What resolution does the narrator make about her lifestyle to become a successful actress?,A. To wake up early and focus on her craft,B. To quit smoking and stop losing personal items,"C. To stop eating cheese puffs, even on special occasions",D. All of the above,D. All of the above,yes,7.5875,,,,,,,,,,,,,0,25,25,25,0,0,0,0,0,0,0,0,1340.9412844170000,,,,,,,,,,,,,,,1330.1849885000000,1330.2004854586700,1330.197854917,1337.7805599580000,1337.789310958,1337.8005042080000,1338.005621875,1338.005621875,1339.547582917,1340.131801292,1.0,1.722265666000110,1,[0.5934520829998746],[0.5934545830000388],,,,,,,1340.930021625,1340.9412844170000,1340.9412844170000,1358.615677125,"turned off, snoozing, successful actors",1,[17.68222916600007],[17.682232041000134],,,,,,,,,,,,,,,,,,,,,,,,1327.783404125,1327.795875,1327.795875,1327.795875,1330.184775042,1,[2.3996017500001017],[2.3996045419999064],1340.132362333,1340.137653958,1340.9294601670000,1,[0.7965942499999983],[0.7965969580000092],,,,,p_2,1,2024-05-04_09h51.46.754,speech_rate,2023.2.3,None,2024-05-04 09h52.26.022892 -0700,
,Someday_2_condition-4x.wav,Someday__Someday__Maybe__Unabridged___File_004_of_116_1.wav,Successful actresses are disciplined people who wake up early to focus on their craft I told myself even ones who still make their living as waitresses like me I started leaving the alarm clock on the landing between Jane's room and mine so I'd have to actually get out of bed in order to turn it off instead of hitting snooze over and over like I normally do I also resolved to quit smoking again to stop losing purses wallets and umbrellas and to not eat any more cheese puffs not even on special occasions,What resolution does the narrator make about her lifestyle to become a successful actress?,A. To wake up early and focus on her craft,B. To quit smoking and stop losing personal items,"C. To stop eating cheese puffs, even on special occasions",D. All of the above,D. All of the above,yes,7.5875,,,,,,,,,,,,,0,25,25,25,0,0,0,0,,,,,,,,,,,,,,,,,,,,,,,,,,,,,,,,,,,,,,,,,,,,,,,,,,,,,,,,,,,,,,,,,,,,,,,,,,,,,,,,,,,,,,,,,,p_2,1,2024-05-04_09h51.46.754,speech_rate,2023.2.3,None,2024-05-04 09h52.26.022892 -0700,
,Someday_2_condition-4x.wav,Someday__Someday__Maybe__Unabridged___File_004_of_116_1.wav,Successful actresses are disciplined people who wake up early to focus on their craft I told myself even ones who still make their living as waitresses like me I started leaving the alarm clock on the landing between Jane's room and mine so I'd have to actually get out of bed in order to turn it off instead of hitting snooze over and over like I normally do I also resolved to quit smoking again to stop losing purses wallets and umbrellas and to not eat any more cheese puffs not even on special occasions,What resolution does the narrator make about her lifestyle to become a successful actress?,A. To wake up early and focus on her craft,B. To quit smoking and stop losing personal items,"C. To stop eating cheese puffs, even on special occasions",D. All of the above,D. All of the above,yes,7.5875,,,,,,,,,,,,,0,25,25,25,,,,,,,,,,,,,,,,,,,,,,,,,,,,,,,,,,,,,,,,,,,,,,,,,,,,,1358.616172792,1364.339397375,0,,,0,,,1,5.712203042000060,5.712205375000170,0,,,,,,,,,,,,,,,,,,,,,,,,,,,,,,p_2,1,2024-05-04_09h51.46.754,speech_rate,2023.2.3,None,2024-05-04 09h52.26.022892 -0700,
,Someday_69_condition-5x.wav,Someday__Someday__Maybe__Unabridged___File_033_of_116_3.wav,Mmm let me see Carol puts on the glasses that hang on a chain around her neck and brings her face just inches from mine I hold very still as if I'm being examined in a doctor's office Well you have some freckles it's true I don't think they're distracting though I don't see them as a problem but I can even out your skin tone if that's what concerns you Carol sighs I don't think she likes me Okay great whatever you think thanks Want a magazine,What does Carol suggest to the main character regarding her freckles?,A. Cover them up with makeup,B. Embrace them as unique,C. Remove them with a cream,D. Get freckle tattoos,A. Cover them up with makeup,yes,5.914,,,,,,,,,,,,,0,26,26,26,0,0,0,0,0,0,0,0,1376.832264958,,,,,,,,,,,,,,,1365.482779875,1365.4982665416700,1365.494609458,1371.4155835000000,1371.417744208,1371.4289685830000,1371.66799875,1371.66799875,1375.164497375,1375.716387125,2.291666666666670,3.707803917000090,1,[0.5646184580000408],[0.5646206660001098],,,,,,,1376.817911625,1376.832264958,1376.832264958,1383.134378208,okay thanks,1,[6.313317458000029],[6.313320750000003],,,,,,,,,,,,,,,,,,,,,,,,1364.339869417,1364.34645025,1364.34645025,1364.34645025,1365.4825344580000,1,[1.1412716669999554],[1.1412742919999346],1375.716890833,1375.721945,1376.8171695830000,1,[1.0996131669999158],[1.0996156250000695],,,,,p_2,1,2024-05-04_09h51.46.754,speech_rate,2023.2.3,None,2024-05-04 09h52.26.022892 -0700,
,Someday_69_condition-5x.wav,Someday__Someday__Maybe__Unabridged___File_033_of_116_3.wav,Mmm let me see Carol puts on the glasses that hang on a chain around her neck and brings her face just inches from mine I hold very still as if I'm being examined in a doctor's office Well you have some freckles it's true I don't think they're distracting though I don't see them as a problem but I can even out your skin tone if that's what concerns you Carol sighs I don't think she likes me Okay great whatever you think thanks Want a magazine,What does Carol suggest to the main character regarding her freckles?,A. Cover them up with makeup,B. Embrace them as unique,C. Remove them with a cream,D. Get freckle tattoos,A. Cover them up with makeup,yes,5.914,,,,,,,,,,,,,0,26,26,26,0,0,0,0,,,,,,,,,,,,,,,,,,,,,,,,,,,,,,,,,,,,,,,,,,,,,,,,,,,,,,,,,,,,,,,,,,,,,,,,,,,,,,,,,,,,,,,,,,p_2,1,2024-05-04_09h51.46.754,speech_rate,2023.2.3,None,2024-05-04 09h52.26.022892 -0700,
,Someday_69_condition-5x.wav,Someday__Someday__Maybe__Unabridged___File_033_of_116_3.wav,Mmm let me see Carol puts on the glasses that hang on a chain around her neck and brings her face just inches from mine I hold very still as if I'm being examined in a doctor's office Well you have some freckles it's true I don't think they're distracting though I don't see them as a problem but I can even out your skin tone if that's what concerns you Carol sighs I don't think she likes me Okay great whatever you think thanks Want a magazine,What does Carol suggest to the main character regarding her freckles?,A. Cover them up with makeup,B. Embrace them as unique,C. Remove them with a cream,D. Get freckle tattoos,A. Cover them up with makeup,yes,5.914,,,,,,,,,,,,,0,26,26,26,,,,,,,,,,,,,,,,,,,,,,,,,,,,,,,,,,,,,,,,,,,,,,,,,,,,,1383.134837542,1385.9081853330000,1,2.7628235830000000,2.762826417000040,0,,,0,,,0,,,,,,,,,,,,,,,,,,,,,,,,,,,,,,p_2,1,2024-05-04_09h51.46.754,speech_rate,2023.2.3,None,2024-05-04 09h52.26.022892 -0700,
,Someday_94_condition.wav,Someday__Someday__Maybe__Unabridged___File_041_of_116_1.wav,He doesn't say anything so I feel obligated to keep going It's as if I'm not driving this train anymore I'm just holding on trying not to crash completely I've always loved the theater I say Thank God It isn't original but it's TRUE at least My dad would take me when I was a kid to whatever little show was playing in our town in Connecticut and we'd also see most of what was in New Haven and sometimes we'd come into the city and it wasn't just theater It was ballet and music and modern dance too I pause,What is the narrator's childhood connection to the theater?,A. She used to perform in school plays,B. Her father would take her to various shows,C. She always dreamed of becoming an actor,D. She was part of a local theater group,B. Her father would take her to various shows,yes,29.88,,,,,,,,,,,,,0,27,27,27,0,0,0,0,0,0,0,0,1420.501851292,,,,,,,,,,,,,,,1387.09039325,1387.139609875,1387.130245125,1417.0183200420000,1417.022213417,1417.043597417,1417.2593415420000,1417.2593415420000,1418.889615708,1419.6466157920000,10,1.8219939160001100,1,[0.7661920830000781],[0.7661955410001156],,,,,,,1420.489905125,1420.501851292,1420.501851292,1450.487591458,this person's dad would take them to see theatre and other shows like ballet in new york. they are from connecticut,0,,,,,,,,,,,,,,,,,1450.5079787500000,1450.5079787500000,,,,,,,,1385.908656125,1385.915250792,1385.915250792,1385.915250792,1387.09020625,1,[1.179961417000186],[1.1799640420001651],1419.647117583,1419.652363375,1420.489063667,1,[0.840948833000084],[0.8409546670000054],,,,,p_2,1,2024-05-04_09h51.46.754,speech_rate,2023.2.3,None,2024-05-04 09h52.26.022892 -0700,
,Someday_94_condition.wav,Someday__Someday__Maybe__Unabridged___File_041_of_116_1.wav,He doesn't say anything so I feel obligated to keep going It's as if I'm not driving this train anymore I'm just holding on trying not to crash completely I've always loved the theater I say Thank God It isn't original but it's TRUE at least My dad would take me when I was a kid to whatever little show was playing in our town in Connecticut and we'd also see most of what was in New Haven and sometimes we'd come into the city and it wasn't just theater It was ballet and music and modern dance too I pause,What is the narrator's childhood connection to the theater?,A. She used to perform in school plays,B. Her father would take her to various shows,C. She always dreamed of becoming an actor,D. She was part of a local theater group,B. Her father would take her to various shows,yes,29.88,,,,,,,,,,,,,0,27,27,27,0,0,0,0,,,,,,,,,,,,,,,,,,,,,,,,,,,,,,,,,,,,,,,,,,,,,,,,,,,,,,,,,,,,,,,,,,,,,,,,,,,,,,,,,,,,,,,,,,p_2,1,2024-05-04_09h51.46.754,speech_rate,2023.2.3,None,2024-05-04 09h52.26.022892 -0700,
,Someday_94_condition.wav,Someday__Someday__Maybe__Unabridged___File_041_of_116_1.wav,He doesn't say anything so I feel obligated to keep going It's as if I'm not driving this train anymore I'm just holding on trying not to crash completely I've always loved the theater I say Thank God It isn't original but it's TRUE at least My dad would take me when I was a kid to whatever little show was playing in our town in Connecticut and we'd also see most of what was in New Haven and sometimes we'd come into the city and it wasn't just theater It was ballet and music and modern dance too I pause,What is the narrator's childhood connection to the theater?,A. She used to perform in school plays,B. Her father would take her to various shows,C. She always dreamed of becoming an actor,D. She was part of a local theater group,B. Her father would take her to various shows,yes,29.88,,,,,,,,,,,,,0,27,27,27,,,,,,,,,,,,,,,,,,,,,,,,,,,,,,,,,,,,,,,,,,,,,,,,,,,,,1450.4880707080000,1454.938199708,0,,,1,4.439876750000170,4.439879875000090,0,,,0,,,,,,,,,,,,,,,,,,,,,,,,,,,,,,p_2,1,2024-05-04_09h51.46.754,speech_rate,2023.2.3,None,2024-05-04 09h52.26.022892 -0700,
,Someday_80_condition.wav,Someday__Someday__Maybe__Unabridged___File_037_of_116_1.wav,I'm happy someone's up happy not to come home to a darkened house after the long day I've had Very good he says looking impressed It's not that hard to recognize You must have rented it five times already this month I know he says smiling sheepishly I hope I'm not driving you guys crazy Jane was watching it for a while but gave up and went to sleep She said the last time she sat through the whole thing she dreamt she was eaten by her pillow It's almost over Want to watch the end with me,What did Jane see in her dream the last time she saw the movie?,A. That is was flying with a penguin,B. That she was sailing during a storm,C. That she was chased by a pirate,D. That she was eaten by her pillow,D. That she was eaten by her pillow,yes,29.32003125,,,,,,,,,,,,,0,28,28,28,0,0,0,0,0,0,0,0,1492.510782708,,,,,,,,,,,,,,,1459.921685875,1459.9536890413300,1459.952909875,1489.272319083,1489.27629175,1489.297742042,1489.569507417,1489.569507417,1490.861251417,1491.617807875,10,1.5391475000001300,1,[0.7659311669999624],[0.7659334580000632],,,,,,,1492.499541292,1492.510782708,1492.510782708,1522.4976153750000,they're watching something and someone asks if she'd like to watch the end with him. Jane didn't like it and it made h,0,,,,,,,,,,,,,,,,,1522.516951583,1522.516951583,,,,,,,,1454.9387281250000,1454.944747708,1454.944747708,1454.944747708,1459.9214327500000,1,[4.982162292000112],[4.982165167000176],1491.618310667,1491.623293208,1492.498754792,1,[0.8797147089999271],[0.8797172919998957],,,,,p_2,1,2024-05-04_09h51.46.754,speech_rate,2023.2.3,None,2024-05-04 09h52.26.022892 -0700,
,Someday_80_condition.wav,Someday__Someday__Maybe__Unabridged___File_037_of_116_1.wav,I'm happy someone's up happy not to come home to a darkened house after the long day I've had Very good he says looking impressed It's not that hard to recognize You must have rented it five times already this month I know he says smiling sheepishly I hope I'm not driving you guys crazy Jane was watching it for a while but gave up and went to sleep She said the last time she sat through the whole thing she dreamt she was eaten by her pillow It's almost over Want to watch the end with me,What did Jane see in her dream the last time she saw the movie?,A. That is was flying with a penguin,B. That she was sailing during a storm,C. That she was chased by a pirate,D. That she was eaten by her pillow,D. That she was eaten by her pillow,yes,29.32003125,,,,,,,,,,,,,0,28,28,28,0,0,0,0,,,,,,,,,,,,,,,,,,,,,,,,,,,,,,,,,,,,,,,,,,,,,,,,,,,,,,,,,,,,,,,,,,,,,,,,,,,,,,,,,,,,,,,,,,p_2,1,2024-05-04_09h51.46.754,speech_rate,2023.2.3,None,2024-05-04 09h52.26.022892 -0700,
,Someday_80_condition.wav,Someday__Someday__Maybe__Unabridged___File_037_of_116_1.wav,I'm happy someone's up happy not to come home to a darkened house after the long day I've had Very good he says looking impressed It's not that hard to recognize You must have rented it five times already this month I know he says smiling sheepishly I hope I'm not driving you guys crazy Jane was watching it for a while but gave up and went to sleep She said the last time she sat through the whole thing she dreamt she was eaten by her pillow It's almost over Want to watch the end with me,What did Jane see in her dream the last time she saw the movie?,A. That is was flying with a penguin,B. That she was sailing during a storm,C. That she was chased by a pirate,D. That she was eaten by her pillow,D. That she was eaten by her pillow,yes,29.32003125,,,,,,,,,,,,,0,28,28,28,,,,,,,,,,,,,,,,,,,,,,,,,,,,,,,,,,,,,,,,,,,,,,,,,,,,,1522.498039417,1528.574022542,0,,,0,,,0,,,1,6.066326499999830,6.066329000000000,,,,,,,,,,,,,,,,,,,,,,,,,,,,p_2,1,2024-05-04_09h51.46.754,speech_rate,2023.2.3,None,2024-05-04 09h52.26.022892 -0700,
,Someday_20_condition-2x.wav,Someday__Someday__Maybe__Unabridged___File_012_of_116_1.wav,Upstairs the waiting room is crowded which means there must be a few different casting calls There are boys and girls near the age of the elevator twins a couple of men in their 50s both in suit and tie and several girls who remind me of me but a better more put together me the me who would play me in the TV movie of the fictional life of the real me I sign in Name time arrived time scheduled agency social security number,What observation does the narrator make about the individuals in the waiting room?,A. They are all likely there for the same casting call,B. They are unorganized and scattered,"C. They appear to be different versions of the narrator, better and more composed",D. They are unrelated to the narrator's field of work,"C. They appear to be different versions of the narrator, better and more composed",yes,13.73,,,,,,,,,,,,,0,29,29,29,0,0,0,0,0,0,0,0,1557.8058455000000,,,,,,,,,,,,,,,1540.309992542,1540.3250679996700,1540.3290398330000,1554.0498919580000,1554.0617449580000,1554.083121417,1554.3410765830000,1554.3410765830000,1556.426680542,1557.154643042,9.975,2.3185103330001800,1,[0.7374430419999953],[0.73744516700026],,,,,,,1557.7944720000000,1557.8058455000000,1557.8058455000000,1587.7943630000000,"she signs in, putting her name, agency, social security number. she talks about the real her impe",0,,,,,,,,,,,,,,,,,1587.8159914580000,1587.8159914580000,,,,,,,,1528.574480042,1528.580463042,1528.580463042,1528.580463042,1540.3097156670000,1,[11.733776083999828],[11.733779542000093],1557.15515175,1557.1600312920000,1557.7937077080000,1,[0.6379968750002263],[0.6379996670002583],,,,,p_2,1,2024-05-04_09h51.46.754,speech_rate,2023.2.3,None,2024-05-04 09h52.26.022892 -0700,
,Someday_20_condition-2x.wav,Someday__Someday__Maybe__Unabridged___File_012_of_116_1.wav,Upstairs the waiting room is crowded which means there must be a few different casting calls There are boys and girls near the age of the elevator twins a couple of men in their 50s both in suit and tie and several girls who remind me of me but a better more put together me the me who would play me in the TV movie of the fictional life of the real me I sign in Name time arrived time scheduled agency social security number,What observation does the narrator make about the individuals in the waiting room?,A. They are all likely there for the same casting call,B. They are unorganized and scattered,"C. They appear to be different versions of the narrator, better and more composed",D. They are unrelated to the narrator's field of work,"C. They appear to be different versions of the narrator, better and more composed",yes,13.73,,,,,,,,,,,,,0,29,29,29,0,0,0,0,,,,,,,,,,,,,,,,,,,,,,,,,,,,,,,,,,,,,,,,,,,,,,,,,,,,,,,,,,,,,,,,,,,,,,,,,,,,,,,,,,,,,,,,,,p_2,1,2024-05-04_09h51.46.754,speech_rate,2023.2.3,None,2024-05-04 09h52.26.022892 -0700,
,Someday_20_condition-2x.wav,Someday__Someday__Maybe__Unabridged___File_012_of_116_1.wav,Upstairs the waiting room is crowded which means there must be a few different casting calls There are boys and girls near the age of the elevator twins a couple of men in their 50s both in suit and tie and several girls who remind me of me but a better more put together me the me who would play me in the TV movie of the fictional life of the real me I sign in Name time arrived time scheduled agency social security number,What observation does the narrator make about the individuals in the waiting room?,A. They are all likely there for the same casting call,B. They are unorganized and scattered,"C. They appear to be different versions of the narrator, better and more composed",D. They are unrelated to the narrator's field of work,"C. They appear to be different versions of the narrator, better and more composed",yes,13.73,,,,,,,,,,,,,0,29,29,29,,,,,,,,,,,,,,,,,,,,,,,,,,,,,,,,,,,,,,,,,,,,,,,,,,,,,1587.7948075420000,1596.0223573750000,0,,,0,,,1,8.215916541999830,8.215919499999930,0,,,,,,,,,,,,,,,,,,,,,,,,,,,,,,p_2,1,2024-05-04_09h51.46.754,speech_rate,2023.2.3,None,2024-05-04 09h52.26.022892 -0700,
,Someday_92_condition.wav,Someday__Someday__Maybe__Unabridged___File_040_of_116_1.wav,The chair I'm using is a cushiony office chair with wheels and I become aware about halfway through the monologue that I've been sort of sliding back and forth in it the chair with wheels equivalent of pacing I steady my feet on the floor and command myself to stop moving which causes me to forget my next line Shit I've totally lost my place I pause trying to stay in character I look out the window as though I'm she's having an important thought If I relax it will come to me If I panic it will not That's what I've learned in class,Why does the narrator look out the window during the monologue?,A. To take the agent's attention,B. To stay in character and find the next line,C. To see something interesting,D. To distract herself,B. To stay in character and find the next line,no,30.3,,,,,,,,,,,,,0,30,30,30,,,,,,,,,1596.0305596250000,,,,,,,,,,,,,,,1598.1678883330000,1598.2166080000000,1598.2085991670000,1628.5137470000000,1628.519673,1628.5416333330000,1628.8085737920000,1628.8085737920000,1630.3021650830000,1630.992412333,8.958333333333330,1.7362825420000300,1,[0.6992891250001776],[0.6992919170002097],,,,,,,,,,,,,,,1630.9928618330000,1639.146596417,0,,,1,8.144963666999960,8.144966291999940,0,,,0,,,,,,,,,,,,1596.0229067080000,1596.0305596250000,1596.0305596250000,1596.0305596250000,1598.1676313330000,1,[2.142907124999965],[2.1429098749999866],,,,,,,,,,,p_2,1,2024-05-04_09h51.46.754,speech_rate,2023.2.3,None,2024-05-04 09h52.26.022892 -0700,
,Someday_125_condition-3x.wav,Someday__Someday__Maybe__Unabridged___File_054_of_116_5.wav,I sit up as if he might be able to see through the telephone that I was lying down at an undignified hour still in the shorts and tank top I slept in I clear my throat and try to make my voice sound more awake It's me It's her That doesn't sound right It is I Hello I Did I wake you up No I'm awake Have a cold Oh shoot Is it a really bad one Joe has an audition for you I've just made an extremely speedy recovery Great Great,What does the narrator say she has?,A. A cold,B. A headache,C. A sore throat,D. A flu,A. A cold,no,11.22375,,,,,,,,,,,,,0,31,31,31,,,,,,,,,1639.153212458,,,,,,,,,,,,,,,1642.634328292,1642.6643018753300,1642.6530916250000,1653.8818778330000,1653.8894640830000,1653.8997930830000,1654.1062019580000,1654.1062019580000,1660.531100125,1661.2236772080000,6.025,6.603301250000190,1,[0.7056195420000222],[0.7056219169999167],,,,,,,,,,,,,,,1661.2241617500000,1664.516806125,1,3.285283542000340,3.2852860840002900,0,,,0,,,0,,,,,,,,,,,,1639.147054917,1639.153212458,1639.153212458,1639.153212458,1642.6340665,1,[3.4854587920003723],[3.4854639170002883],,,,,,,,,,,p_2,1,2024-05-04_09h51.46.754,speech_rate,2023.2.3,None,2024-05-04 09h52.26.022892 -0700,
