index,wav_file,old_name,segment_text,question,C1,C2,C3,C4,C_correct,summary,duration,training.thisRepN,training.thisTrialN,training.thisN,training.thisIndex,sum_true.thisRepN,sum_true.thisTrialN,sum_true.thisN,sum_true.thisIndex,dummy_loop.thisRepN,dummy_loop.thisTrialN,dummy_loop.thisN,dummy_loop.thisIndex,experiment.thisRepN,experiment.thisTrialN,experiment.thisN,experiment.thisIndex,sum_true_exp.thisRepN,sum_true_exp.thisTrialN,sum_true_exp.thisN,sum_true_exp.thisIndex,dummy_loop_exp.thisRepN,dummy_loop_exp.thisTrialN,dummy_loop_exp.thisN,dummy_loop_exp.thisIndex,thisRow.t,notes,Experimenter.started,reminder.started,Experimenter.stopped,Instructions.started,Instructions.stopped,Start_Segment_Train.started,Play_train.started,Trial_counter_train.started,text_5.started,Start_Segment_Train.stopped,Play_train.numClicks,Play_train.timesOn,Play_train.timesOff,Training_Segment.started,Experimen_audio.started,polygon.started,polygon.stopped,Training_Segment.stopped,Rating.started,slider.started,text_3.started,button_2.started,Rating.stopped,slider.response,slider.rt,button_2.numClicks,button_2.timesOn,button_2.timesOff,Start_Summary.started,text_2.started,Start_Summary.stopped,summary_button.numClicks,summary_button.timesOn,summary_button.timesOff,Summary.started,textbox.started,summary_done.started,Summary.stopped,textbox.text,summary_done.numClicks,summary_done.timesOn,summary_done.timesOff,Multiple_Choice_2.started,Multiple_Choice_2.stopped,A.numClicks,A.timesOn,A.timesOff,B.numClicks,B.timesOn,B.timesOff,C.numClicks,C.timesOn,C.timesOff,D.numClicks,D.timesOn,D.timesOff,Start_Exp.started,Start_exp.started,Start.started,Start_Exp.stopped,Start.numClicks,Start.timesOn,Start.timesOff,Start_Segment.started,Play.started,Trial_counter.started,text_6.started,Start_Segment.stopped,Play.numClicks,Play.timesOn,Play.timesOff,Start_Sum_Exp.started,text_4.started,Start_Sum_Exp.stopped,sum_button.numClicks,sum_button.timesOn,sum_button.timesOff,textbox.stopped,summary_done.stopped,Thanks.started,text_7.started,text_7.stopped,Thanks.stopped,participant,session,date,expName,psychopyVersion,frameRate,expStart,
1,Someday_trial_condition.wav,Someday__Someday__Maybe__Unabridged___File_069_of_116_3.wav,It's a gut feeling You can't nickname him He's a real person not a joke person You don't have to tell me Only a real person would try to shake hands with my best friend's foot Jane you're not explaining it right It was very romantic And thankfully our steaming bowl of bright yellow melted cheese with flecks of green chilies arrives Listen she says dipping a chip into the creamy depths You're the one with the brand new personality I'm still the same old Jane,"What does the narrator have, according to Jane?",A) A new recipe for dipping sauce,B) A new personality,C) A new restaurant suggestion,D) A new pair of shoes,B) A new personality,yes,30,0,0,0,0,0,0,0,0,0,0,0,0,,,,,,,,,,,,,126.53080054200001,,0.009744334000004073,0.018755250000026535,2.4353204590000246,2.4353299590000006,42.80148033400002,42.81192066700004,42.829613542000004,42.829613542000004,42.829613542000004,44.06895487500003,1,[1.2471365829999854],[1.2471392499999752],44.069324084000016,44.11818245900001,44.11289345900002,74.13394670900004,74.10340337500003,74.12567841700002,74.33424766700006,74.33424766700006,82.41324650000001,83.42547220900002,10,8.259602374999986,1,[1.0218902500000127],[1.0218925830000103],83.42771112500003,83.43473799999998,126.49109045900008,1,[43.062679167000056],[43.06268299999999],126.49189420900001,126.53080054200001,126.53080054200001,147.25781750000004,"She was talking about friends and shaking hands with somebody
",1,[20.73812787499992],[20.73813170899996],,,,,,,,,,,,,,,,,,,,,,,,,,,,,,,,,,,,,,,,,,p_5,001,2024-05-06_09h23.14.771,speech_rate,2023.2.3,None,2024-05-06 09h23.25.942801 -0700,
1,Someday_trial_condition.wav,Someday__Someday__Maybe__Unabridged___File_069_of_116_3.wav,It's a gut feeling You can't nickname him He's a real person not a joke person You don't have to tell me Only a real person would try to shake hands with my best friend's foot Jane you're not explaining it right It was very romantic And thankfully our steaming bowl of bright yellow melted cheese with flecks of green chilies arrives Listen she says dipping a chip into the creamy depths You're the one with the brand new personality I'm still the same old Jane,"What does the narrator have, according to Jane?",A) A new recipe for dipping sauce,B) A new personality,C) A new restaurant suggestion,D) A new pair of shoes,B) A new personality,yes,30,0,0,0,0,0,0,0,0,,,,,,,,,,,,,,,,,,,,,,,,,,,,,,,,,,,,,,,,,,,,,,,,,,,,,,,,,,,,,,,,,,,,,,,,,,,,,,,,,,,,,,,,,,,,,,,,,,,,,,p_5,001,2024-05-06_09h23.14.771,speech_rate,2023.2.3,None,2024-05-06 09h23.25.942801 -0700,
1,Someday_trial_condition.wav,Someday__Someday__Maybe__Unabridged___File_069_of_116_3.wav,It's a gut feeling You can't nickname him He's a real person not a joke person You don't have to tell me Only a real person would try to shake hands with my best friend's foot Jane you're not explaining it right It was very romantic And thankfully our steaming bowl of bright yellow melted cheese with flecks of green chilies arrives Listen she says dipping a chip into the creamy depths You're the one with the brand new personality I'm still the same old Jane,"What does the narrator have, according to Jane?",A) A new recipe for dipping sauce,B) A new personality,C) A new restaurant suggestion,D) A new pair of shoes,B) A new personality,yes,30,0,0,0,0,,,,,,,,,,,,,,,,,,,,,,,,,,,,,,,,,,,,,,,,,,,,,,,,,,,,,,,,,,,,,,,,,147.25835950000004,155.790799542,1,8.510499665999987,8.510503040999993,0,,,0,,,0,,,,,,,,,,,,,,,,,,,,,,,,,,,,,,p_5,001,2024-05-06_09h23.14.771,speech_rate,2023.2.3,None,2024-05-06 09h23.25.942801 -0700,
2,Someday_trial_condition-5x.wav,Someday__Someday__Maybe__Unabridged___File_103_of_116_1.wav,Isn't halfway where two people usually meet Well in general maybe But tonight this is sort of a big deal for me It's my night I'm not sure you you don't think I get it Well no I mean how could you I'm having trouble making sense of this conversation James is speaking with authority but there's something wrong Something feels so wrong somehow I don't care about waving and smiling and having my picture taken with him,"How does James speak, according to the narrator?",A) With compassion,B) With grief,C) With hesitation,D) With authority,D) With authority,yes,6.2,0,1,1,1,0,0,0,0,0,0,0,0,,,,,,,,,,,,,170.34881208400003,,,,,,,155.791666625,155.801438334,155.801438334,155.801438334,158.19570375000006,1,[2.4000786670000025],[2.400081417000024],158.19614445899998,158.21151812566674,158.20899275000005,164.417588125,164.39852675000003,164.409672875,164.649357834,164.649357834,166.70027670899998,168.05511025000004,2.025,2.2647635419999688,1,[1.3638934589999963],[1.3638960419999648],168.05573050000004,168.06068595900007,170.33555408400008,1,[2.2794151670000247],[2.2794178750000356],170.3362705,170.34881208400003,170.34881208400003,172.398776875,,1,[2.05834512499996],[2.0583478749999813],,,,,,,,,,,,,,,,,,,,,,,,,,,,,,,,,,,,,,,,,,p_5,001,2024-05-06_09h23.14.771,speech_rate,2023.2.3,None,2024-05-06 09h23.25.942801 -0700,
2,Someday_trial_condition-5x.wav,Someday__Someday__Maybe__Unabridged___File_103_of_116_1.wav,Isn't halfway where two people usually meet Well in general maybe But tonight this is sort of a big deal for me It's my night I'm not sure you you don't think I get it Well no I mean how could you I'm having trouble making sense of this conversation James is speaking with authority but there's something wrong Something feels so wrong somehow I don't care about waving and smiling and having my picture taken with him,"How does James speak, according to the narrator?",A) With compassion,B) With grief,C) With hesitation,D) With authority,D) With authority,yes,6.2,0,1,1,1,0,0,0,0,,,,,,,,,,,,,,,,,,,,,,,,,,,,,,,,,,,,,,,,,,,,,,,,,,,,,,,,,,,,,,,,,,,,,,,,,,,,,,,,,,,,,,,,,,,,,,,,,,,,,,p_5,001,2024-05-06_09h23.14.771,speech_rate,2023.2.3,None,2024-05-06 09h23.25.942801 -0700,
2,Someday_trial_condition-5x.wav,Someday__Someday__Maybe__Unabridged___File_103_of_116_1.wav,Isn't halfway where two people usually meet Well in general maybe But tonight this is sort of a big deal for me It's my night I'm not sure you you don't think I get it Well no I mean how could you I'm having trouble making sense of this conversation James is speaking with authority but there's something wrong Something feels so wrong somehow I don't care about waving and smiling and having my picture taken with him,"How does James speak, according to the narrator?",A) With compassion,B) With grief,C) With hesitation,D) With authority,D) With authority,yes,6.2,0,1,1,1,,,,,,,,,,,,,,,,,,,,,,,,,,,,,,,,,,,,,,,,,,,,,,,,,,,,,,,,,,,,,,,,,172.39919420899997,181.38513462500003,0,,,0,,,0,,,1,8.976375415999996,8.976378374999967,,,,,,,,,,,,,,,,,,,,,,,,,,,,p_5,001,2024-05-06_09h23.14.771,speech_rate,2023.2.3,None,2024-05-06 09h23.25.942801 -0700,
,Someday_90_condition.wav,Someday__Someday__Maybe__Unabridged___File_039_of_116_3.wav,There are so many to choose from I wonder if this is part of the audition and the chairs are a test I wonder if I'm being watched on a hidden camera I wonder if I should be worried about the alarming frequency that the concept of being watched on a hidden camera occurs to me But if I were being watched what chair would the people sitting behind the monitor in the hidden control room consider the right one Does Absolute Artists work only with people who choose to sit at the head of the table Does that say I'm a star Is that the kind of boldness they're looking for,Why does the narrator wonder if the chairs are part of the audition?,A. She thinks the chairs are being watched,B. She believes the chairs are a test,C. She wants to find the right chair to sit in,D. All of the above,D. All of the above,no,29.66003125,,,,,,,,,,,,,0,0,0,0,,,,,,,,,240.07267320900002,,,,,,,,,,,,,,,243.05264466700004,243.10120333400005,243.091502542,272.752758917,272.7646253340001,272.78617416700007,272.98984675,272.98984675,275.7626947090001,276.51904029200006,9.0,2.948366333000081,1,[0.7691206250000278],[0.7691229160000148],,,,,,,,,,,,,,,276.51968200000005,293.99901266700004,0,,,0,,,0,,,1,17.468735625000022,17.468738750000057,181.38564716700006,181.39263320900005,181.39263320900005,240.015617417,1,[58.628749459000005],[58.62876004200007],240.06214629200002,240.07267320900002,240.07267320900002,240.07267320900002,243.05214295900004,1,[2.9867957920000663],[2.9867986670000164],,,,,,,,,,,,,p_5,001,2024-05-06_09h23.14.771,speech_rate,2023.2.3,None,2024-05-06 09h23.25.942801 -0700,
,Someday_120_condition-2x.wav,Someday__Someday__Maybe__Unabridged___File_053_of_116_2.wav,Everything you need is in each packet so it takes the guesswork out of dieting You sound like you've joined a cult What happens when you have to go back to the real world the world where you have to think for yourself Hopefully I'll be so weak and frail that food will have lost its appeal entirely Great plan And who's on Lisa today I'm pretty sure today's show is Women Who Wish Their Best Friends Would Stop Judging Them Har har I'm going to work now Do you want me to take the TV cord with me,"What topic is discussed on Lisa's show, in the narrator's joke?",A. Weight loss programs,B. The challenges of dieting,C. Women's relationships with their best friends,D. The appeal of joining a cult,C. Women's relationships with their best friends,yes,13.885,,,,,,,,,,,,,0,1,1,1,0,0,0,0,0,0,0,0,333.898014875,,,,,,,,,,,,,,,302.70539854200007,302.7210797916667,302.725898084,316.6046581670001,316.617112375,316.638357042,316.83998708400003,316.83998708400003,318.94840608400006,319.788195625,7.983333333333333,2.2701316670001006,1,[0.864827167000044],[0.8648293340000919],,,,,,,333.886765,333.898014875,333.898014875,360.0529231670001,"character is ging to work and she as if she need to take the cord for her friend
",1,[26.162690207999958],[26.16269433299999],,,,,,,,,,,,,,,,,,,,,,294.000072625,294.007040584,294.007040584,294.007040584,302.70520141700007,1,[8.703716542000052],[8.703719208000052],319.788690584,319.79853758400003,333.885839709,1,[14.094791959000077],[14.094794834000027],,,,,,,p_5,001,2024-05-06_09h23.14.771,speech_rate,2023.2.3,None,2024-05-06 09h23.25.942801 -0700,
,Someday_120_condition-2x.wav,Someday__Someday__Maybe__Unabridged___File_053_of_116_2.wav,Everything you need is in each packet so it takes the guesswork out of dieting You sound like you've joined a cult What happens when you have to go back to the real world the world where you have to think for yourself Hopefully I'll be so weak and frail that food will have lost its appeal entirely Great plan And who's on Lisa today I'm pretty sure today's show is Women Who Wish Their Best Friends Would Stop Judging Them Har har I'm going to work now Do you want me to take the TV cord with me,"What topic is discussed on Lisa's show, in the narrator's joke?",A. Weight loss programs,B. The challenges of dieting,C. Women's relationships with their best friends,D. The appeal of joining a cult,C. Women's relationships with their best friends,yes,13.885,,,,,,,,,,,,,0,1,1,1,0,0,0,0,,,,,,,,,,,,,,,,,,,,,,,,,,,,,,,,,,,,,,,,,,,,,,,,,,,,,,,,,,,,,,,,,,,,,,,,,,,,,,,,,,,,,,,,,,p_5,001,2024-05-06_09h23.14.771,speech_rate,2023.2.3,None,2024-05-06 09h23.25.942801 -0700,
,Someday_120_condition-2x.wav,Someday__Someday__Maybe__Unabridged___File_053_of_116_2.wav,Everything you need is in each packet so it takes the guesswork out of dieting You sound like you've joined a cult What happens when you have to go back to the real world the world where you have to think for yourself Hopefully I'll be so weak and frail that food will have lost its appeal entirely Great plan And who's on Lisa today I'm pretty sure today's show is Women Who Wish Their Best Friends Would Stop Judging Them Har har I'm going to work now Do you want me to take the TV cord with me,"What topic is discussed on Lisa's show, in the narrator's joke?",A. Weight loss programs,B. The challenges of dieting,C. Women's relationships with their best friends,D. The appeal of joining a cult,C. Women's relationships with their best friends,yes,13.885,,,,,,,,,,,,,0,1,1,1,,,,,,,,,,,,,,,,,,,,,,,,,,,,,,,,,,,,,,,,,,,,,,,,,,,,,360.05338825000007,373.74656620900004,0,,,0,,,1,13.680871625000009,13.68087454199997,0,,,,,,,,,,,,,,,,,,,,,,,,,,,,,,p_5,001,2024-05-06_09h23.14.771,speech_rate,2023.2.3,None,2024-05-06 09h23.25.942801 -0700,
,Someday_20_condition.wav,Someday__Someday__Maybe__Unabridged___File_012_of_116_1.wav,Upstairs the waiting room is crowded which means there must be a few different casting calls There are boys and girls near the age of the elevator twins a couple of men in their 50s both in suit and tie and several girls who remind me of me but a better more put together me the me who would play me in the TV movie of the fictional life of the real me I sign in Name time arrived time scheduled agency social security number,What observation does the narrator make about the individuals in the waiting room?,A. They are all likely there for the same casting call,B. They are unorganized and scattered,"C. They appear to be different versions of the narrator, better and more composed",D. They are unrelated to the narrator's field of work,"C. They appear to be different versions of the narrator, better and more composed",no,27.41,,,,,,,,,,,,,0,2,2,2,,,,,,,,,373.7542696670001,,,,,,,,,,,,,,,377.87039016700004,377.9026422923334,377.899760167,405.31067050000007,405.31361787500003,405.33464929200005,405.594967125,405.594967125,406.88835820900005,408.10581925,10,1.5294755410000107,1,[1.2266490829999839],[1.226651625000045],,,,,,,,,,,,,,,408.10631570900006,421.532415125,0,,,0,,,1,13.414065584000014,13.414068541999995,0,,,,,,,,,,373.747171959,373.7542696670001,373.7542696670001,373.7542696670001,377.87014812500007,1,[4.121328166000012],[4.121331082999973],,,,,,,,,,,,,p_5,001,2024-05-06_09h23.14.771,speech_rate,2023.2.3,None,2024-05-06 09h23.25.942801 -0700,
,Someday_80_condition-3x.wav,Someday__Someday__Maybe__Unabridged___File_037_of_116_1.wav,I'm happy someone's up happy not to come home to a darkened house after the long day I've had Very good he says looking impressed It's not that hard to recognize You must have rented it five times already this month I know he says smiling sheepishly I hope I'm not driving you guys crazy Jane was watching it for a while but gave up and went to sleep She said the last time she sat through the whole thing she dreamt she was eaten by her pillow It's almost over Want to watch the end with me,What did Jane see in her dream the last time she saw the movie?,A. That is was flying with a penguin,B. That she was sailing during a storm,C. That she was chased by a pirate,D. That she was eaten by her pillow,D. That she was eaten by her pillow,yes,11.01375,,,,,,,,,,,,,0,3,3,3,0,0,0,0,0,0,0,0,459.54594708400003,,,,,,,,,,,,,,,427.694489292,427.7105387506667,427.71143920900005,438.755812792,438.72579275000004,438.748023959,438.959328417,438.959328417,440.9220782500001,441.590691792,4.983333333333333,2.1338364169999977,1,[0.693949707999991],[0.6939519170000494],,,,,,,459.53457633400006,459.54594708400003,459.54594708400003,460.59125416700005,,1,[1.0534810830000652],[1.0534836670000232],,,,,,,,,,,,,,,,,,,,,,421.53303487500006,421.5397185,421.5397185,421.5397185,427.694293125,1,[6.160844042000008],[6.160846541999945],441.59119879200006,441.5959975,459.53392075000005,1,[17.942304000000036],[17.942306667000025],,,,,,,p_5,001,2024-05-06_09h23.14.771,speech_rate,2023.2.3,None,2024-05-06 09h23.25.942801 -0700,
,Someday_80_condition-3x.wav,Someday__Someday__Maybe__Unabridged___File_037_of_116_1.wav,I'm happy someone's up happy not to come home to a darkened house after the long day I've had Very good he says looking impressed It's not that hard to recognize You must have rented it five times already this month I know he says smiling sheepishly I hope I'm not driving you guys crazy Jane was watching it for a while but gave up and went to sleep She said the last time she sat through the whole thing she dreamt she was eaten by her pillow It's almost over Want to watch the end with me,What did Jane see in her dream the last time she saw the movie?,A. That is was flying with a penguin,B. That she was sailing during a storm,C. That she was chased by a pirate,D. That she was eaten by her pillow,D. That she was eaten by her pillow,yes,11.01375,,,,,,,,,,,,,0,3,3,3,0,0,0,0,,,,,,,,,,,,,,,,,,,,,,,,,,,,,,,,,,,,,,,,,,,,,,,,,,,,,,,,,,,,,,,,,,,,,,,,,,,,,,,,,,,,,,,,,,p_5,001,2024-05-06_09h23.14.771,speech_rate,2023.2.3,None,2024-05-06 09h23.25.942801 -0700,
,Someday_80_condition-3x.wav,Someday__Someday__Maybe__Unabridged___File_037_of_116_1.wav,I'm happy someone's up happy not to come home to a darkened house after the long day I've had Very good he says looking impressed It's not that hard to recognize You must have rented it five times already this month I know he says smiling sheepishly I hope I'm not driving you guys crazy Jane was watching it for a while but gave up and went to sleep She said the last time she sat through the whole thing she dreamt she was eaten by her pillow It's almost over Want to watch the end with me,What did Jane see in her dream the last time she saw the movie?,A. That is was flying with a penguin,B. That she was sailing during a storm,C. That she was chased by a pirate,D. That she was eaten by her pillow,D. That she was eaten by her pillow,yes,11.01375,,,,,,,,,,,,,0,3,3,3,,,,,,,,,,,,,,,,,,,,,,,,,,,,,,,,,,,,,,,,,,,,,,,,,,,,,460.59163837500006,475.676048709,0,,,1,15.074959583999998,15.07496249999997,0,,,0,,,,,,,,,,,,,,,,,,,,,,,,,,,,,,p_5,001,2024-05-06_09h23.14.771,speech_rate,2023.2.3,None,2024-05-06 09h23.25.942801 -0700,
,Someday_68_condition.wav,Someday__Someday__Maybe__Unabridged___File_033_of_116_2.wav,I'm looking into a giant mirror on a wall of mirrors each framed by dozens of fluorescent light bulbs In the blinding light my face looks nothing like the face I have in Brooklyn I wonder if this is my real face or if the face I have in Brooklyn is the real one and what my queen's face might look like Um no not that I can think of I tell her I wonder if I will over time develop preferences and what they might be in regard to my face being made up,How does the narrator describe the mirror she is looking at?,A. Framed by fluorescent lights,B. Vintage,C. Broken,D. Not big enough,A. Framed by fluorescent lights,yes,29.77,,,,,,,,,,,,,0,4,4,4,0,0,0,0,0,0,0,0,512.5139139590001,,,,,,,,,,,,,,,477.7002796670001,477.74913179200007,477.74316725,507.527027209,507.52725341700005,507.548496459,507.753029292,507.753029292,509.36569408400004,510.88335420900006,10.0,1.7925097499999083,1,[1.5273027499999898],[1.5273049580000588],,,,,,,512.503020375,512.5139139590001,512.5139139590001,542.5055802920001,She is trying to find here identity. Particulartly the face sh,0,,,,,,,,,,,,,,,,,,,,,,,,475.67664175,475.685330834,475.685330834,475.685330834,477.700067125,1,[2.0211048329999812],[2.0211077079999313],510.8838730840001,510.892452,512.5023767499999,1,[1.6180865830000357],[1.6180891249999831],,,,,,,p_5,001,2024-05-06_09h23.14.771,speech_rate,2023.2.3,None,2024-05-06 09h23.25.942801 -0700,
,Someday_68_condition.wav,Someday__Someday__Maybe__Unabridged___File_033_of_116_2.wav,I'm looking into a giant mirror on a wall of mirrors each framed by dozens of fluorescent light bulbs In the blinding light my face looks nothing like the face I have in Brooklyn I wonder if this is my real face or if the face I have in Brooklyn is the real one and what my queen's face might look like Um no not that I can think of I tell her I wonder if I will over time develop preferences and what they might be in regard to my face being made up,How does the narrator describe the mirror she is looking at?,A. Framed by fluorescent lights,B. Vintage,C. Broken,D. Not big enough,A. Framed by fluorescent lights,yes,29.77,,,,,,,,,,,,,0,4,4,4,0,0,0,0,,,,,,,,,,,,,,,,,,,,,,,,,,,,,,,,,,,,,,,,,,,,,,,,,,,,,,,,,,,,,,,,,,,,,,,,,,,,,,,,,,,,,,,,,,p_5,001,2024-05-06_09h23.14.771,speech_rate,2023.2.3,None,2024-05-06 09h23.25.942801 -0700,
,Someday_68_condition.wav,Someday__Someday__Maybe__Unabridged___File_033_of_116_2.wav,I'm looking into a giant mirror on a wall of mirrors each framed by dozens of fluorescent light bulbs In the blinding light my face looks nothing like the face I have in Brooklyn I wonder if this is my real face or if the face I have in Brooklyn is the real one and what my queen's face might look like Um no not that I can think of I tell her I wonder if I will over time develop preferences and what they might be in regard to my face being made up,How does the narrator describe the mirror she is looking at?,A. Framed by fluorescent lights,B. Vintage,C. Broken,D. Not big enough,A. Framed by fluorescent lights,yes,29.77,,,,,,,,,,,,,0,4,4,4,,,,,,,,,,,,,,,,,,,,,,,,,,,,,,,,,,,,,,,,,,,,,,,,,,,,,542.505954209,554.928527667,1,12.411449749999974,12.41145295900003,0,,,0,,,0,,,,,,,,,,,,,,,,,,,,,,,,,,,,,,p_5,001,2024-05-06_09h23.14.771,speech_rate,2023.2.3,None,2024-05-06 09h23.25.942801 -0700,
,Someday_99_condition-2x.wav,Someday__Someday__Maybe__Unabridged___File_044_of_116_1.wav,There are the things we all know we're supposed to have monologue comedic and dramatic song up tempo and ballad but there's a serious lack of information beyond that Today I need a funny laugh but what else should I know how to do Roller skating maybe That seems to come up a lot lately Jokes I should know more jokes in case I ever get asked if I've heard any good jokes lately but I'm not a good joke teller I always mess up the endings Maybe I should try to memorize a knock knock joke at least just in case,What does the narrator feel she needs to learn for auditions?,A. Horseback riding,B. Jokes,C. Monologues,D. Ballads,B. Jokes,yes,13.81,,,,,,,,,,,,,0,5,5,5,0,0,0,0,0,0,0,0,575.6910521249999,,,,,,,,,,,,,,,555.6973680420001,555.7293718753333,555.718007792,569.530568917,569.5405814999999,569.5628272920001,569.826429042,569.826429042,571.2234452499999,572.202930959,7.0,1.6338524160000816,1,[0.988636667000037],[0.9886390830000664],,,,,,,575.6799571670001,575.6910521249999,575.6910521249999,602.4739817920001,"The character is trying to figure out jokes she should know or tell
",1,[26.790736750000065],[26.790740000000028],,,,,,,,,,,,,,,,,,,,,,554.9290042499999,554.9354738750001,554.9354738750001,554.9354738750001,555.6971140840001,1,[0.7663685830000304],[0.7663714169999594],572.203421917,572.212613292,575.6793407089999,1,[3.475485875000004],[3.475488417000065],,,,,,,p_5,001,2024-05-06_09h23.14.771,speech_rate,2023.2.3,None,2024-05-06 09h23.25.942801 -0700,
,Someday_99_condition-2x.wav,Someday__Someday__Maybe__Unabridged___File_044_of_116_1.wav,There are the things we all know we're supposed to have monologue comedic and dramatic song up tempo and ballad but there's a serious lack of information beyond that Today I need a funny laugh but what else should I know how to do Roller skating maybe That seems to come up a lot lately Jokes I should know more jokes in case I ever get asked if I've heard any good jokes lately but I'm not a good joke teller I always mess up the endings Maybe I should try to memorize a knock knock joke at least just in case,What does the narrator feel she needs to learn for auditions?,A. Horseback riding,B. Jokes,C. Monologues,D. Ballads,B. Jokes,yes,13.81,,,,,,,,,,,,,0,5,5,5,0,0,0,0,,,,,,,,,,,,,,,,,,,,,,,,,,,,,,,,,,,,,,,,,,,,,,,,,,,,,,,,,,,,,,,,,,,,,,,,,,,,,,,,,,,,,,,,,,p_5,001,2024-05-06_09h23.14.771,speech_rate,2023.2.3,None,2024-05-06 09h23.25.942801 -0700,
,Someday_99_condition-2x.wav,Someday__Someday__Maybe__Unabridged___File_044_of_116_1.wav,There are the things we all know we're supposed to have monologue comedic and dramatic song up tempo and ballad but there's a serious lack of information beyond that Today I need a funny laugh but what else should I know how to do Roller skating maybe That seems to come up a lot lately Jokes I should know more jokes in case I ever get asked if I've heard any good jokes lately but I'm not a good joke teller I always mess up the endings Maybe I should try to memorize a knock knock joke at least just in case,What does the narrator feel she needs to learn for auditions?,A. Horseback riding,B. Jokes,C. Monologues,D. Ballads,B. Jokes,yes,13.81,,,,,,,,,,,,,0,5,5,5,,,,,,,,,,,,,,,,,,,,,,,,,,,,,,,,,,,,,,,,,,,,,,,,,,,,,602.4744830000002,605.886026959,0,,,1,3.4016902500000015,3.401693167000076,0,,,0,,,,,,,,,,,,,,,,,,,,,,,,,,,,,,p_5,001,2024-05-06_09h23.14.771,speech_rate,2023.2.3,None,2024-05-06 09h23.25.942801 -0700,
,Someday_7_condition-5x.wav,Someday__Someday__Maybe__Unabridged___File_007_of_116_0.wav,You start out with a three year goal which then becomes a five year goal and before you know it you're still calling yourself an actor but most days you're being assigned a locker outside the cafeteria of the General Electric building so you can change into a borrowed pink polyester lunch lady uniform and serve lukewarm lasagna to a bunch of businessmen who call you excuse me I've made some progress but not enough to tell me for sure that I'm doing the right thing with my life It took most of the first year just to get the coveted waitressing job at the comedy club,What endeavor consumed most of the first year for the narrator?,A. Becoming a successful actress,B. Getting a job at General Electric,C. Getting a waitressing job,D. Becoming a comedian,C. Getting a waitressing job,yes,5.786,,,,,,,,,,,,,0,6,6,6,0,0,0,0,0,0,0,0,619.6664282090001,,,,,,,,,,,,,,,608.5001822500001,608.5157795836667,608.512160042,614.299718667,614.3033622090002,614.3146240420001,614.575301584,614.575301584,616.6488636250001,617.3717843750001,1.0916666666666668,2.293902042000127,1,[0.7481326670001636],[0.7481350000000475],,,,,,,619.6519042500001,619.6664282090001,619.6664282090001,621.382478709,,1,[1.7274442499999623],[1.727447457999915],,,,,,,,,,,,,,,,,,,,,,605.8866345840001,605.8988369170002,605.8988369170002,605.8988369170002,608.499944375,1,[2.6110938750000514],[2.611096666000094],617.372335084,617.3823871250002,619.6511387090002,1,[2.278350916999898],[2.2783535839998876],,,,,,,p_5,001,2024-05-06_09h23.14.771,speech_rate,2023.2.3,None,2024-05-06 09h23.25.942801 -0700,
,Someday_7_condition-5x.wav,Someday__Someday__Maybe__Unabridged___File_007_of_116_0.wav,You start out with a three year goal which then becomes a five year goal and before you know it you're still calling yourself an actor but most days you're being assigned a locker outside the cafeteria of the General Electric building so you can change into a borrowed pink polyester lunch lady uniform and serve lukewarm lasagna to a bunch of businessmen who call you excuse me I've made some progress but not enough to tell me for sure that I'm doing the right thing with my life It took most of the first year just to get the coveted waitressing job at the comedy club,What endeavor consumed most of the first year for the narrator?,A. Becoming a successful actress,B. Getting a job at General Electric,C. Getting a waitressing job,D. Becoming a comedian,C. Getting a waitressing job,yes,5.786,,,,,,,,,,,,,0,6,6,6,0,0,0,0,,,,,,,,,,,,,,,,,,,,,,,,,,,,,,,,,,,,,,,,,,,,,,,,,,,,,,,,,,,,,,,,,,,,,,,,,,,,,,,,,,,,,,,,,,p_5,001,2024-05-06_09h23.14.771,speech_rate,2023.2.3,None,2024-05-06 09h23.25.942801 -0700,
,Someday_7_condition-5x.wav,Someday__Someday__Maybe__Unabridged___File_007_of_116_0.wav,You start out with a three year goal which then becomes a five year goal and before you know it you're still calling yourself an actor but most days you're being assigned a locker outside the cafeteria of the General Electric building so you can change into a borrowed pink polyester lunch lady uniform and serve lukewarm lasagna to a bunch of businessmen who call you excuse me I've made some progress but not enough to tell me for sure that I'm doing the right thing with my life It took most of the first year just to get the coveted waitressing job at the comedy club,What endeavor consumed most of the first year for the narrator?,A. Becoming a successful actress,B. Getting a job at General Electric,C. Getting a waitressing job,D. Becoming a comedian,C. Getting a waitressing job,yes,5.786,,,,,,,,,,,,,0,6,6,6,,,,,,,,,,,,,,,,,,,,,,,,,,,,,,,,,,,,,,,,,,,,,,,,,,,,,621.3829269590001,630.0199958340002,1,8.626444457999924,8.626450207999824,0,,,0,,,0,,,,,,,,,,,,,,,,,,,,,,,,,,,,,,p_5,001,2024-05-06_09h23.14.771,speech_rate,2023.2.3,None,2024-05-06 09h23.25.942801 -0700,
,Someday_115_condition.wav,Someday__Someday__Maybe__Unabridged___File_051_of_116_2.wav,All those people can't just be walking around starving and happening to look great all the time They must know something that the rest of us don't Or worse maybe there isn't a trick Maybe they are walking around hungry all the time Maybe that's the difference between being successful or unsuccessful Maybe I'm too weak I'm too concerned with feeling good to be willing to feel as bad as I should to be successful Why would feeling good be bad People spend their lives trying to feel good You're not supposed to walk around miserable all the time,What is the narrator's concern about the successful people she sees?,A. They are always happy,B. They are always starving themselves,C. They know a secret for good acting,D. They are too weak to succeed,B. They are always starving themselves,yes,29.49,,,,,,,,,,,,,0,7,7,7,0,0,0,0,0,0,0,0,669.815551959,,,,,,,,,,,,,,,632.710387375,632.7429479583334,632.7434526250001,662.2251952920001,662.236890959,662.2581781670001,662.4582189170001,662.4582189170001,664.6735706250001,665.431067084,9.883333333333333,2.3906072499999027,1,[0.7668659169999046],[0.7668683330000476],,,,,,,669.804485334,669.815551959,669.815551959,699.8041605840001,The character is trying to figure out how her feelings are getting in the way of her success and if you should feel ,0,,,,,,,,,,,,,,,,,,,,,,,,630.0205473340002,630.0331954590001,630.0331954590001,630.0331954590001,632.7101647920001,1,[2.6874270830001024],[2.687429958000166],665.4315542090001,665.4363982090001,669.8034794590001,1,[4.371504917000038],[4.3715077090000705],699.824271292,699.824271292,,,,,p_5,001,2024-05-06_09h23.14.771,speech_rate,2023.2.3,None,2024-05-06 09h23.25.942801 -0700,
,Someday_115_condition.wav,Someday__Someday__Maybe__Unabridged___File_051_of_116_2.wav,All those people can't just be walking around starving and happening to look great all the time They must know something that the rest of us don't Or worse maybe there isn't a trick Maybe they are walking around hungry all the time Maybe that's the difference between being successful or unsuccessful Maybe I'm too weak I'm too concerned with feeling good to be willing to feel as bad as I should to be successful Why would feeling good be bad People spend their lives trying to feel good You're not supposed to walk around miserable all the time,What is the narrator's concern about the successful people she sees?,A. They are always happy,B. They are always starving themselves,C. They know a secret for good acting,D. They are too weak to succeed,B. They are always starving themselves,yes,29.49,,,,,,,,,,,,,0,7,7,7,0,0,0,0,,,,,,,,,,,,,,,,,,,,,,,,,,,,,,,,,,,,,,,,,,,,,,,,,,,,,,,,,,,,,,,,,,,,,,,,,,,,,,,,,,,,,,,,,,p_5,001,2024-05-06_09h23.14.771,speech_rate,2023.2.3,None,2024-05-06 09h23.25.942801 -0700,
,Someday_115_condition.wav,Someday__Someday__Maybe__Unabridged___File_051_of_116_2.wav,All those people can't just be walking around starving and happening to look great all the time They must know something that the rest of us don't Or worse maybe there isn't a trick Maybe they are walking around hungry all the time Maybe that's the difference between being successful or unsuccessful Maybe I'm too weak I'm too concerned with feeling good to be willing to feel as bad as I should to be successful Why would feeling good be bad People spend their lives trying to feel good You're not supposed to walk around miserable all the time,What is the narrator's concern about the successful people she sees?,A. They are always happy,B. They are always starving themselves,C. They know a secret for good acting,D. They are too weak to succeed,B. They are always starving themselves,yes,29.49,,,,,,,,,,,,,0,7,7,7,,,,,,,,,,,,,,,,,,,,,,,,,,,,,,,,,,,,,,,,,,,,,,,,,,,,,699.804611542,718.0493048340002,0,,,1,18.23468162500012,18.234684499999958,0,,,0,,,,,,,,,,,,,,,,,,,,,,,,,,,,,,p_5,001,2024-05-06_09h23.14.771,speech_rate,2023.2.3,None,2024-05-06 09h23.25.942801 -0700,
,Someday_11_condition-5x.wav,Someday__Someday__Maybe__Unabridged___File_008_of_116_3.wav,Hello Yes hi Dad I said Franny this is your father Dad I know How did you know it was me I told you we have caller ID now Is it curable Dad it's that thing where your number comes up when you call What a horrible invention Why would anyone want that So you know who's calling before you pick up Why don't you just say hello who's calling Dad what's up I have an audition To the point then Your Aunt Mary Ellen wanted me to remind you to book a room for Katie's wedding,What does the narrator's father want them to do regarding Katie's wedding?,A. Attend the rehearsal dinner,B. Book a room for the wedding,C. Be a bridesmaid,D. Decline the wedding invitation,B. Book a room for the wedding,no,5.888,,,,,,,,,,,,,0,8,8,8,,,,,,,,,718.056408917,,,,,,,,,,,,,,,720.5931890840002,720.6060129586667,720.6053555420001,726.5061317920001,726.5078953340001,726.5191292920001,726.7875887920002,726.7875887920002,729.361306125,731.290404459,1.0,2.8178082500000983,1,[1.9384608330001356],[1.9384632910000619],,,,,,,,,,,,,,,731.2908573750001,739.4889997920002,1,8.188750374999927,8.18875279200006,0,,,0,,,0,,,,,,,,,,718.0498824590002,718.056408917,718.056408917,718.056408917,720.592915875,1,[2.5422868329999346],[2.542293166000036],,,,,,,,,,,,,p_5,001,2024-05-06_09h23.14.771,speech_rate,2023.2.3,None,2024-05-06 09h23.25.942801 -0700,
,Someday_106_condition-3x.wav,Someday__Someday__Maybe__Unabridged___File_047_of_116_2.wav,Someone goes for him Someone does everything for him And he seems miserable He reads everything they write about him in the magazines and he gets so upset When work is over and his wife is back in LA he doesn't seem to know what to do with himself And he goes out with the guys from the crew who aren't even really his friends And they get drunk and it ends up on page six I keep thinking someone should be helping him in a different way or there should be some sort of manual for him because he just doesn't seem to be enjoying any of it,How does the person the narrator works for behave when he's not working?,A. He enjoys his free time and socializes with friends,B. He reads about himself in magazines and gets upset,C. He spends time with his wife in LA,D. He writes a manual for himself to navigate success,B. He reads about himself in magazines and gets upset,no,10.725,,,,,,,,,,,,,0,9,9,9,,,,,,,,,739.4960647920002,,,,,,,,,,,,,,,741.7637785840002,741.7793115836666,741.7795369170001,752.4969343340001,752.508651334,752.5300980420002,752.731302959,752.731302959,754.1966904170001,756.4356705,4.508333333333334,3.3085102080001434,1,[2.248646332999897],[2.2486486669999977],,,,,,,,,,,,,,,756.4361039170001,769.5246763340001,0,,,1,13.078713000000107,13.078715417000012,0,,,0,,,,,,,,,,739.489480917,739.4960647920002,739.4960647920002,739.4960647920002,741.7635472090001,1,[2.272243708999895],[2.2722462919998634],,,,,,,,,,,,,p_5,001,2024-05-06_09h23.14.771,speech_rate,2023.2.3,None,2024-05-06 09h23.25.942801 -0700,
,Someday_110_condition-2x.wav,Someday__Someday__Maybe__Unabridged___File_048_of_116_3.wav,But still the dry cleaners own you You're at their mercy Clothes that have to be dry cleaned look down on you Is it the clothes who are to blame or the dry cleaning professionals themselves Chicken or the egg my friend This new dry cleaning conspiracy theory reminds me of your fear of ironing This is nothing like my fear of ironing Although ironing is another secret society that doesn't want you to know what's up Do you know anyone who can tell you why the ironing board is shaped that way How does it help me that it's the size of a surfboard,What is the dry cleaning conspiracy theory being compared to?,A. A fear of ironing,B. The shape of an ironing board,C. A secret society,D. A surfboard,A. A fear of ironing,no,14.19996875,,,,,,,,,,,,,0,10,10,10,,,,,,,,,769.531714917,,,,,,,,,,,,,,,771.7316869170002,771.7637547503334,771.7542795420002,785.9489165,785.970034209,785.9915446250002,786.1963842500002,786.1963842500002,789.126638875,789.6880667500002,3.975,3.1103520419999313,1,[0.5709841660000166],[0.570986375000075],,,,,,,,,,,,,,,789.688496834,802.510605792,0,,,0,,,1,12.813697708000063,12.813705000000027,0,,,,,,,,,,769.5251578340001,769.531714917,769.531714917,769.531714917,771.7314485840002,1,[2.2044713329999013],[2.204474290999997],,,,,,,,,,,,,p_5,001,2024-05-06_09h23.14.771,speech_rate,2023.2.3,None,2024-05-06 09h23.25.942801 -0700,
,Someday_61_condition.wav,Someday__Someday__Maybe__Unabridged___File_030_of_116_0.wav,He said we all we all is not asking you out but why leave a message just to we all me I think he's asking me out in his own way We all means I asked for your number because I think you're cute but I'm seeing someone So I'm trying to pretend to myself that I just asked for your number to be friends with you And I'm asking if you want to have a drink sometime with me and my girlfriend which will never But it helps me feel like less of a shithead for asking for your number in the first place You've been we all'd my friend,What does the term "we all" imply in the context given by the narrator?,A. The person is directly asking the narrator out on a date,B. The person left a message to genuinely make a new friend,C. The person is extending an invitation for a group outing,D. The person might be expressing interest under the guise of friendship despite being in a relationship,D. The person might be expressing interest under the guise of friendship despite being in a relationship,no,30.38003125,,,,,,,,,,,,,0,11,11,11,,,,,,,,,802.5258080420001,,,,,,,,,,,,,,,804.9668670000001,805.01617725,805.0098600840001,835.385158667,835.3977227920002,835.4192192500002,835.6321802500001,835.6321802500001,837.844562084,840.479896542,9.850000000000001,2.9729269580000164,1,[2.6482227920000696],[2.648224958000128],,,,,,,,,,,,,,,840.4803702920001,852.0975030000002,0,,,0,,,0,,,1,11.604781541999955,11.60478491699996,,,,,,,,802.5112431250002,802.5258080420001,802.5258080420001,802.5258080420001,804.966655792,1,[2.4535415000000285],[2.4535441250000076],,,,,,,,,,,,,p_5,001,2024-05-06_09h23.14.771,speech_rate,2023.2.3,None,2024-05-06 09h23.25.942801 -0700,
,Someday_114_condition-4x.wav,Someday__Someday__Maybe__Unabridged___File_051_of_116_0.wav,You know in general for show business I think that's why I'm not getting any calls from the agency What do you think is the right way to look You know more like these girls on still nursing I gesture toward the television where a buxom blonde in a short skirt and open doctor's coat is struggling to reattach the IV of an elderly male patient by straddling his hospital bed accidentally smothering him with her cleavage The studio audience screams with laughter,What TV show does the narrator reference in their conversation about appearances?,A. A cooking show,B. A crime show,C. A sitcom called "Still Nursing",D. A reality show,C. A sitcom called "Still Nursing",yes,7.17,,,,,,,,,,,,,0,12,12,12,0,0,0,0,0,0,0,0,868.5302175420002,,,,,,,,,,,,,,,852.7700247920002,852.7856929166667,852.783320709,859.9469572500002,859.9568544170002,859.9680965,860.2481662090001,860.2481662090001,862.547661584,864.3201866250001,1.975,2.55487016699999,1,[1.7820273340000767],[1.7820295420001457],,,,,,,868.5027177500001,868.5302175420002,868.5302175420002,875.115622709,"laughter
",1,[6.609595458000058],[6.609598708000021],,,,,,,,,,,,,,,,,,,,,,852.0981155420002,852.1057023750002,852.1057023750002,852.1057023750002,852.7698119170002,1,[0.6700040409998564],[0.6700069159999202],864.3207116670001,864.3296587920001,868.502147875,1,[4.181005249999998],[4.181007916999988],,,,,,,p_5,001,2024-05-06_09h23.14.771,speech_rate,2023.2.3,None,2024-05-06 09h23.25.942801 -0700,
,Someday_114_condition-4x.wav,Someday__Someday__Maybe__Unabridged___File_051_of_116_0.wav,You know in general for show business I think that's why I'm not getting any calls from the agency What do you think is the right way to look You know more like these girls on still nursing I gesture toward the television where a buxom blonde in a short skirt and open doctor's coat is struggling to reattach the IV of an elderly male patient by straddling his hospital bed accidentally smothering him with her cleavage The studio audience screams with laughter,What TV show does the narrator reference in their conversation about appearances?,A. A cooking show,B. A crime show,C. A sitcom called "Still Nursing",D. A reality show,C. A sitcom called "Still Nursing",yes,7.17,,,,,,,,,,,,,0,12,12,12,0,0,0,0,,,,,,,,,,,,,,,,,,,,,,,,,,,,,,,,,,,,,,,,,,,,,,,,,,,,,,,,,,,,,,,,,,,,,,,,,,,,,,,,,,,,,,,,,,p_5,001,2024-05-06_09h23.14.771,speech_rate,2023.2.3,None,2024-05-06 09h23.25.942801 -0700,
,Someday_114_condition-4x.wav,Someday__Someday__Maybe__Unabridged___File_051_of_116_0.wav,You know in general for show business I think that's why I'm not getting any calls from the agency What do you think is the right way to look You know more like these girls on still nursing I gesture toward the television where a buxom blonde in a short skirt and open doctor's coat is struggling to reattach the IV of an elderly male patient by straddling his hospital bed accidentally smothering him with her cleavage The studio audience screams with laughter,What TV show does the narrator reference in their conversation about appearances?,A. A cooking show,B. A crime show,C. A sitcom called "Still Nursing",D. A reality show,C. A sitcom called "Still Nursing",yes,7.17,,,,,,,,,,,,,0,12,12,12,,,,,,,,,,,,,,,,,,,,,,,,,,,,,,,,,,,,,,,,,,,,,,,,,,,,,875.1160970840001,883.6991426670002,1,8.57347875000005,8.573481542000081,0,,,0,,,0,,,,,,,,,,,,,,,,,,,,,,,,,,,,,,p_5,001,2024-05-06_09h23.14.771,speech_rate,2023.2.3,None,2024-05-06 09h23.25.942801 -0700,
,Someday_10_condition-3x.wav,Someday__Someday__Maybe__Unabridged___File_008_of_116_2.wav,I've worn this combination so many times before that today my all black outfit feels a little boring a little blah What would Jane do I think to myself and pull a chunky brown leather belt from the top shelf of the closet slinging it low around my hips Finally taking weather and product into consideration I take the top part of my hair and tie it into a small black velvet scrunchie on top of my head The phone begins to ring from its place on the landing between my room and Jane's Hi Dad,What does the narrator wear to their class after the audition?,A. A black dress,B. A white t-shirt,C. A red skirt,D. A brown leather belt,D. A brown leather belt,yes,10.8675,,,,,,,,,,,,,0,13,13,13,0,0,0,0,0,0,0,0,908.0676238340002,,,,,,,,,,,,,,,887.1550715840001,887.1706285416667,887.171501084,898.032788792,898.0512123340002,898.0622311250002,898.273165417,898.273165417,902.6977570000001,905.1880679170001,4.725,4.609842791000119,1,[2.5003502910001316],[2.500352666000026],,,,,,,908.0557961250001,908.0676238340002,908.0676238340002,938.052211334,trying to figure out her outfit and picks a all back outfit with a black belt and says hi to da,0,,,,,,,,,,,,,,,,,,,,,,,,883.6996644170001,883.705465625,883.705465625,883.705465625,887.154869792,1,[3.4547770419999324],[3.454779959000007],905.1885697920002,905.1986796670001,908.0544487920001,1,[2.864561667000089],[2.864572292000048],938.072200459,938.072200459,,,,,p_5,001,2024-05-06_09h23.14.771,speech_rate,2023.2.3,None,2024-05-06 09h23.25.942801 -0700,
,Someday_10_condition-3x.wav,Someday__Someday__Maybe__Unabridged___File_008_of_116_2.wav,I've worn this combination so many times before that today my all black outfit feels a little boring a little blah What would Jane do I think to myself and pull a chunky brown leather belt from the top shelf of the closet slinging it low around my hips Finally taking weather and product into consideration I take the top part of my hair and tie it into a small black velvet scrunchie on top of my head The phone begins to ring from its place on the landing between my room and Jane's Hi Dad,What does the narrator wear to their class after the audition?,A. A black dress,B. A white t-shirt,C. A red skirt,D. A brown leather belt,D. A brown leather belt,yes,10.8675,,,,,,,,,,,,,0,13,13,13,0,0,0,0,,,,,,,,,,,,,,,,,,,,,,,,,,,,,,,,,,,,,,,,,,,,,,,,,,,,,,,,,,,,,,,,,,,,,,,,,,,,,,,,,,,,,,,,,,p_5,001,2024-05-06_09h23.14.771,speech_rate,2023.2.3,None,2024-05-06 09h23.25.942801 -0700,
,Someday_10_condition-3x.wav,Someday__Someday__Maybe__Unabridged___File_008_of_116_2.wav,I've worn this combination so many times before that today my all black outfit feels a little boring a little blah What would Jane do I think to myself and pull a chunky brown leather belt from the top shelf of the closet slinging it low around my hips Finally taking weather and product into consideration I take the top part of my hair and tie it into a small black velvet scrunchie on top of my head The phone begins to ring from its place on the landing between my room and Jane's Hi Dad,What does the narrator wear to their class after the audition?,A. A black dress,B. A white t-shirt,C. A red skirt,D. A brown leather belt,D. A brown leather belt,yes,10.8675,,,,,,,,,,,,,0,13,13,13,,,,,,,,,,,,,,,,,,,,,,,,,,,,,,,,,,,,,,,,,,,,,,,,,,,,,938.052645209,956.836674375,1,18.774258207999992,18.774261083000056,0,,,0,,,0,,,,,,,,,,,,,,,,,,,,,,,,,,,,,,p_5,001,2024-05-06_09h23.14.771,speech_rate,2023.2.3,None,2024-05-06 09h23.25.942801 -0700,
,Someday_14_condition.wav,Someday__Someday__Maybe__Unabridged___File_009_of_116_2.wav,Jane grew up in Greenwich Village in Manhattan and has style Where I struggle to match a black shirt with black pants she throws on jeans and a t shirt and nine chunky cuffs on one wrist with an air that says so I dare you to not find this cool She shops at Century 21 and Boltons and second hand stores and somehow makes it all look expensive Wait Jane Levine you are not just getting home are you I ask peeking into one of the brown bags Can they do that to you,Where did Jane grow up in?,A. Williamsburg,B. Greenwich Village,C. SoHo,D. Queens,B. Greenwich Village,no,28.11003125,,,,,,,,,,,,,0,14,14,14,,,,,,,,,956.8449688750002,,,,,,,,,,,,,,,958.87041875,958.9023311253334,958.9008067090001,987.0210356250002,987.0230402920001,987.0446440840001,987.3049342500001,987.3049342500001,990.9426370420001,993.204622167,9.049999999999999,5.644550624999965,1,[2.271025125000051],[2.271027417000141],,,,,,,,,,,,,,,993.2051093340001,999.962343959,0,,,0,,,0,,,1,6.7496101250001175,6.74961329100006,,,,,,,,956.8372678340002,956.8449688750002,956.8449688750002,956.8449688750002,958.869972084,1,[2.0309419160000743],[2.030944583000064],,,,,,,,,,,,,p_5,001,2024-05-06_09h23.14.771,speech_rate,2023.2.3,None,2024-05-06 09h23.25.942801 -0700,
,Someday_54_condition-5x.wav,Someday__Someday__Maybe__Unabridged___File_027_of_116_2.wav,It's made of navy blue quilted leather and has a gold chain instead of a strap and she told me once it was a college graduation gift from her parents She usually leaves it out on the table and she always lays one of our cloth napkins underneath it I'm fascinated by the bag because to my knowledge it's the single most expensive item I've ever seen up close but the napkin thing always bothers me as if she's implying our housekeeping isn't quite up to her standards Still Everett's perfectly nice and I want her to feel welcome here,What is distinctive about Everett's Chanel bag?,A. It's bright red,B. It's made of velvet,C. It has a gold chain strap,D. It's a gift from the narrator,C. It has a gold chain strap,yes,5.802,,,,,,,,,,,,,0,15,15,15,0,0,0,0,0,0,0,0,1014.1184130420002,,,,,,,,,,,,,,,1004.0290137090001,1004.0445813336667,1004.0417026250002,1009.8387008750001,1009.8472636250001,1009.8574700840002,1010.0612090000002,1010.0612090000002,1011.9712765840002,1013.1394265000001,1.166666666666667,2.0861767499998223,1,[1.1806950000000143],[1.1806973329998982],,,,,,,1014.1071314590001,1014.1184130420002,1014.1184130420002,1019.8069312500002,knowlegde,1,[5.69667800000002],[5.696681207999973],,,,,,,,,,,,,,,,,,,,,,999.9628096250001,999.9694636670001,999.9694636670001,999.9694636670001,1004.0287805,1,[4.064488666999978],[4.064491416999999],1013.1399586250002,1013.1447882920002,1014.1063382500001,1,[0.9659296249999443],[0.9659322079999129],,,,,,,p_5,001,2024-05-06_09h23.14.771,speech_rate,2023.2.3,None,2024-05-06 09h23.25.942801 -0700,
,Someday_54_condition-5x.wav,Someday__Someday__Maybe__Unabridged___File_027_of_116_2.wav,It's made of navy blue quilted leather and has a gold chain instead of a strap and she told me once it was a college graduation gift from her parents She usually leaves it out on the table and she always lays one of our cloth napkins underneath it I'm fascinated by the bag because to my knowledge it's the single most expensive item I've ever seen up close but the napkin thing always bothers me as if she's implying our housekeeping isn't quite up to her standards Still Everett's perfectly nice and I want her to feel welcome here,What is distinctive about Everett's Chanel bag?,A. It's bright red,B. It's made of velvet,C. It has a gold chain strap,D. It's a gift from the narrator,C. It has a gold chain strap,yes,5.802,,,,,,,,,,,,,0,15,15,15,0,0,0,0,,,,,,,,,,,,,,,,,,,,,,,,,,,,,,,,,,,,,,,,,,,,,,,,,,,,,,,,,,,,,,,,,,,,,,,,,,,,,,,,,,,,,,,,,,p_5,001,2024-05-06_09h23.14.771,speech_rate,2023.2.3,None,2024-05-06 09h23.25.942801 -0700,
,Someday_54_condition-5x.wav,Someday__Someday__Maybe__Unabridged___File_027_of_116_2.wav,It's made of navy blue quilted leather and has a gold chain instead of a strap and she told me once it was a college graduation gift from her parents She usually leaves it out on the table and she always lays one of our cloth napkins underneath it I'm fascinated by the bag because to my knowledge it's the single most expensive item I've ever seen up close but the napkin thing always bothers me as if she's implying our housekeeping isn't quite up to her standards Still Everett's perfectly nice and I want her to feel welcome here,What is distinctive about Everett's Chanel bag?,A. It's bright red,B. It's made of velvet,C. It has a gold chain strap,D. It's a gift from the narrator,C. It has a gold chain strap,yes,5.802,,,,,,,,,,,,,0,15,15,15,,,,,,,,,,,,,,,,,,,,,,,,,,,,,,,,,,,,,,,,,,,,,,,,,,,,,1019.8074579170002,1027.757271834,0,,,0,,,1,7.939170291999972,7.939173125000025,0,,,,,,,,,,,,,,,,,,,,,,,,,,,,,,p_5,001,2024-05-06_09h23.14.771,speech_rate,2023.2.3,None,2024-05-06 09h23.25.942801 -0700,
,Someday_100_condition-5x.wav,Someday__Someday__Maybe__Unabridged___File_044_of_116_2.wav,Who else laughs funny It seems all I can think of are people who have completely normal ways of laughing or Fran Drescher from The Nanny but that's her laugh It's only funny the way she does it Or is that what they want Someone who can copy someone else's already funny laugh rather than trying to invent a better one Now all I can think of is the laugh from The Nanny Maybe that's what I'll do then I can't think of anything else I'll just try to do a really good version of the laugh from The Nanny The girls are coming and going out of the audition room with incredible speed,What famous laugh does the narrator consider using for the audition?,A. A laugh from a family member,B. A laugh from a friend,C. The laugh from The Nanny,D. A unique and invented laugh,C. The laugh from The Nanny,yes,5.906,,,,,,,,,,,,,0,16,16,16,0,0,0,0,0,0,0,0,1040.44250125,,,,,,,,,,,,,,,1029.791292334,1029.8064490006668,1029.803976292,1035.706789,1035.712834959,1035.723898792,1035.929983292,1035.929983292,1038.2838341670001,1038.863989375,1,2.5316569999999956,1,[0.589578124999889],[0.5895805000000109],,,,,,,1040.431090125,1040.44250125,1040.44250125,1041.131333167,,1,[0.697049375000006],[0.6970519999999851],,,,,,,,,,,,,,,,,,,,,,1027.7578625,1027.765385959,1027.765385959,1027.765385959,1029.7906641250001,1,[2.0311592499999733],[2.031162125000037],1038.8645001250002,1038.872535875,1040.4304509590002,1,[1.5655000419999396],[1.5655026249999082],,,,,,,p_5,001,2024-05-06_09h23.14.771,speech_rate,2023.2.3,None,2024-05-06 09h23.25.942801 -0700,
,Someday_100_condition-5x.wav,Someday__Someday__Maybe__Unabridged___File_044_of_116_2.wav,Who else laughs funny It seems all I can think of are people who have completely normal ways of laughing or Fran Drescher from The Nanny but that's her laugh It's only funny the way she does it Or is that what they want Someone who can copy someone else's already funny laugh rather than trying to invent a better one Now all I can think of is the laugh from The Nanny Maybe that's what I'll do then I can't think of anything else I'll just try to do a really good version of the laugh from The Nanny The girls are coming and going out of the audition room with incredible speed,What famous laugh does the narrator consider using for the audition?,A. A laugh from a family member,B. A laugh from a friend,C. The laugh from The Nanny,D. A unique and invented laugh,C. The laugh from The Nanny,yes,5.906,,,,,,,,,,,,,0,16,16,16,0,0,0,0,,,,,,,,,,,,,,,,,,,,,,,,,,,,,,,,,,,,,,,,,,,,,,,,,,,,,,,,,,,,,,,,,,,,,,,,,,,,,,,,,,,,,,,,,,p_5,001,2024-05-06_09h23.14.771,speech_rate,2023.2.3,None,2024-05-06 09h23.25.942801 -0700,
,Someday_100_condition-5x.wav,Someday__Someday__Maybe__Unabridged___File_044_of_116_2.wav,Who else laughs funny It seems all I can think of are people who have completely normal ways of laughing or Fran Drescher from The Nanny but that's her laugh It's only funny the way she does it Or is that what they want Someone who can copy someone else's already funny laugh rather than trying to invent a better one Now all I can think of is the laugh from The Nanny Maybe that's what I'll do then I can't think of anything else I'll just try to do a really good version of the laugh from The Nanny The girls are coming and going out of the audition room with incredible speed,What famous laugh does the narrator consider using for the audition?,A. A laugh from a family member,B. A laugh from a friend,C. The laugh from The Nanny,D. A unique and invented laugh,C. The laugh from The Nanny,yes,5.906,,,,,,,,,,,,,0,16,16,16,,,,,,,,,,,,,,,,,,,,,,,,,,,,,,,,,,,,,,,,,,,,,,,,,,,,,1041.131714584,1050.9747655420001,1,9.833606874999987,9.833609459000172,0,,,0,,,0,,,,,,,,,,,,,,,,,,,,,,,,,,,,,,p_5,001,2024-05-06_09h23.14.771,speech_rate,2023.2.3,None,2024-05-06 09h23.25.942801 -0700,
,Someday_65_condition-3x.wav,Someday__Someday__Maybe__Unabridged___File_032_of_116_0.wav,From the minute I walk into the wardrobe fitting in a trailer near mine I'm confused There are two giant rolling racks one full of tan trousers one stuffed with 30 or 40 identical blue shirts Oh Are there are there more people coming I ask a harried looking woman nearby She looks at me as though I've said something strange what oh the racks No those are all for you But aren't these all the same pants I say laughing a little,What does the narrator find confusing in the wardrobe fitting?,A. The lack of clothing options,B. The number of people there,C. The presence of a harried woman,D. The identical blue shirts and tan trousers,D. The identical blue shirts and tan trousers,yes,10.53375,,,,,,,,,,,,,0,17,17,17,0,0,0,0,0,0,0,0,1071.559107709,,,,,,,,,,,,,,,1052.558922959,1052.5743191256668,1052.575434542,1063.0981516670001,1063.110064959,1063.1213415,1063.328800667,1063.328800667,1065.5631922090001,1067.076129,2.9416666666666664,2.417346250000037,1,[1.522060250000095],[1.5220627090000107],,,,,,,1071.547212375,1071.559107709,1071.559107709,1086.109533625,pants and observing people at the party,1,[14.558879708999939],[14.558882625000024],,,,,,,,,,,,,,,,,,,,,,1050.9753474170002,1050.982071375,1050.982071375,1050.982071375,1052.558687125,1,[1.5817418330000237],[1.5817449999999553],1067.07666025,1067.0813419590002,1071.546371334,1,[4.4690688329999375],[4.469074832999922],,,,,,,p_5,001,2024-05-06_09h23.14.771,speech_rate,2023.2.3,None,2024-05-06 09h23.25.942801 -0700,
,Someday_65_condition-3x.wav,Someday__Someday__Maybe__Unabridged___File_032_of_116_0.wav,From the minute I walk into the wardrobe fitting in a trailer near mine I'm confused There are two giant rolling racks one full of tan trousers one stuffed with 30 or 40 identical blue shirts Oh Are there are there more people coming I ask a harried looking woman nearby She looks at me as though I've said something strange what oh the racks No those are all for you But aren't these all the same pants I say laughing a little,What does the narrator find confusing in the wardrobe fitting?,A. The lack of clothing options,B. The number of people there,C. The presence of a harried woman,D. The identical blue shirts and tan trousers,D. The identical blue shirts and tan trousers,yes,10.53375,,,,,,,,,,,,,0,17,17,17,0,0,0,0,,,,,,,,,,,,,,,,,,,,,,,,,,,,,,,,,,,,,,,,,,,,,,,,,,,,,,,,,,,,,,,,,,,,,,,,,,,,,,,,,,,,,,,,,,p_5,001,2024-05-06_09h23.14.771,speech_rate,2023.2.3,None,2024-05-06 09h23.25.942801 -0700,
,Someday_65_condition-3x.wav,Someday__Someday__Maybe__Unabridged___File_032_of_116_0.wav,From the minute I walk into the wardrobe fitting in a trailer near mine I'm confused There are two giant rolling racks one full of tan trousers one stuffed with 30 or 40 identical blue shirts Oh Are there are there more people coming I ask a harried looking woman nearby She looks at me as though I've said something strange what oh the racks No those are all for you But aren't these all the same pants I say laughing a little,What does the narrator find confusing in the wardrobe fitting?,A. The lack of clothing options,B. The number of people there,C. The presence of a harried woman,D. The identical blue shirts and tan trousers,D. The identical blue shirts and tan trousers,yes,10.53375,,,,,,,,,,,,,0,17,17,17,,,,,,,,,,,,,,,,,,,,,,,,,,,,,,,,,,,,,,,,,,,,,,,,,,,,,1086.1100525420002,1092.0455094590002,0,,,1,5.925341374999789,5.925344249999853,0,,,0,,,,,,,,,,,,,,,,,,,,,,,,,,,,,,p_5,001,2024-05-06_09h23.14.771,speech_rate,2023.2.3,None,2024-05-06 09h23.25.942801 -0700,
,Someday_47_condition-2x.wav,Someday__Someday__Maybe__Unabridged___File_024_of_116_3.wav,I almost feel as though I belong in this crowd tonight or that it's possible I could someday Absolute agency You're kidding me Look at you Dina hugs me hard when I tell her the news her perfectly polished red nails squeezing my arms Rockstar And another agency called Sparks Sparks That's Barney Sparks It's just him He's the whole office He's great He's been around a long time Dina holds her wine glass up already half empty and smiles,What does Dina do when the narrator tells her the news?,A. She hugs her,B. She shakes her hand,C. She kisses her,D. She cheers for her,A. She hugs her,yes,15.03,,,,,,,,,,,,,0,18,18,18,0,0,0,0,0,0,0,0,1118.961647542,,,,,,,,,,,,,,,1096.834236459,1096.8664262503335,1096.8560312500001,1111.88473825,1111.8983828750002,1111.918798292,1112.159599042,1112.159599042,1114.75956975,1115.396067959,5.991666666666666,2.8158107919998656,1,[0.6459552920000533],[0.6459580840000854],,,,,,,1118.949976292,1118.961647542,1118.961647542,1147.03107625,"character is greeting people and meetings people from two groups
",1,[28.077782249999927],[28.077785332999838],,,,,,,,,,,,,,,,,,,,,,1092.046067125,1092.059653125,1092.059653125,1092.059653125,1096.8339722090002,1,[4.787428042000101],[4.787430708000102],1115.3966587090001,1115.4106145,1118.949132084,1,[3.5518147089999275],[3.5518198339998435],,,,,,,p_5,001,2024-05-06_09h23.14.771,speech_rate,2023.2.3,None,2024-05-06 09h23.25.942801 -0700,
,Someday_47_condition-2x.wav,Someday__Someday__Maybe__Unabridged___File_024_of_116_3.wav,I almost feel as though I belong in this crowd tonight or that it's possible I could someday Absolute agency You're kidding me Look at you Dina hugs me hard when I tell her the news her perfectly polished red nails squeezing my arms Rockstar And another agency called Sparks Sparks That's Barney Sparks It's just him He's the whole office He's great He's been around a long time Dina holds her wine glass up already half empty and smiles,What does Dina do when the narrator tells her the news?,A. She hugs her,B. She shakes her hand,C. She kisses her,D. She cheers for her,A. She hugs her,yes,15.03,,,,,,,,,,,,,0,18,18,18,0,0,0,0,,,,,,,,,,,,,,,,,,,,,,,,,,,,,,,,,,,,,,,,,,,,,,,,,,,,,,,,,,,,,,,,,,,,,,,,,,,,,,,,,,,,,,,,,,p_5,001,2024-05-06_09h23.14.771,speech_rate,2023.2.3,None,2024-05-06 09h23.25.942801 -0700,
,Someday_47_condition-2x.wav,Someday__Someday__Maybe__Unabridged___File_024_of_116_3.wav,I almost feel as though I belong in this crowd tonight or that it's possible I could someday Absolute agency You're kidding me Look at you Dina hugs me hard when I tell her the news her perfectly polished red nails squeezing my arms Rockstar And another agency called Sparks Sparks That's Barney Sparks It's just him He's the whole office He's great He's been around a long time Dina holds her wine glass up already half empty and smiles,What does Dina do when the narrator tells her the news?,A. She hugs her,B. She shakes her hand,C. She kisses her,D. She cheers for her,A. She hugs her,yes,15.03,,,,,,,,,,,,,0,18,18,18,,,,,,,,,,,,,,,,,,,,,,,,,,,,,,,,,,,,,,,,,,,,,,,,,,,,,1147.031546917,1153.8824973340002,1,6.842101749999983,6.842104707999852,0,,,0,,,0,,,,,,,,,,,,,,,,,,,,,,,,,,,,,,p_5,001,2024-05-06_09h23.14.771,speech_rate,2023.2.3,None,2024-05-06 09h23.25.942801 -0700,
,Someday_9_condition-4x.wav,Someday__Someday__Maybe__Unabridged___File_008_of_116_1.wav,For the Stevie Nicks fan club Jane seriously say something helpful She tilted her head studying me carefully Honestly Franny all I can think of to say is you look like you work at a really great bakery in Maine I have class tonight after my audition so today I go for young mom meets acting class neutral black sweater black tights short black wool skirt and my Doc Martin Oxford lace up shoes Not super mom ish but practical for walking,What does Jane say the narrator looks like?,A. Like she works at a bakery,B. Like she is a movie star,C. Like she is a student at Oxford,D. Like she is a mom,A. Like she works at a bakery,yes,7.5175,,,,,,,,,,,,,0,19,19,19,0,0,0,0,0,0,0,0,1172.6935076250002,,,,,,,,,,,,,,,1156.906614084,1156.9220936256668,1156.9202447500002,1164.4477227920001,1164.449884417,1164.471592625,1164.7295892500001,1164.7295892500001,1167.6578570840002,1169.037327792,1.8416666666666666,3.1560074169999552,1,[1.3886799169999904],[1.388682332999906],,,,,,,1172.6825989590002,1172.6935076250002,1172.6935076250002,1176.632528334,"walking
",1,[3.9468618749999678],[3.9468646249999892],,,,,,,,,,,,,,,,,,,,,,1153.883006584,1153.896102834,1153.896102834,1153.896102834,1156.906390709,1,[3.0216639160000796],[3.0216665410000587],1169.0378319170002,1169.046732167,1172.681902,1,[3.6436236249999183],[3.6436262499998975],,,,,,,p_5,001,2024-05-06_09h23.14.771,speech_rate,2023.2.3,None,2024-05-06 09h23.25.942801 -0700,
,Someday_9_condition-4x.wav,Someday__Someday__Maybe__Unabridged___File_008_of_116_1.wav,For the Stevie Nicks fan club Jane seriously say something helpful She tilted her head studying me carefully Honestly Franny all I can think of to say is you look like you work at a really great bakery in Maine I have class tonight after my audition so today I go for young mom meets acting class neutral black sweater black tights short black wool skirt and my Doc Martin Oxford lace up shoes Not super mom ish but practical for walking,What does Jane say the narrator looks like?,A. Like she works at a bakery,B. Like she is a movie star,C. Like she is a student at Oxford,D. Like she is a mom,A. Like she works at a bakery,yes,7.5175,,,,,,,,,,,,,0,19,19,19,0,0,0,0,,,,,,,,,,,,,,,,,,,,,,,,,,,,,,,,,,,,,,,,,,,,,,,,,,,,,,,,,,,,,,,,,,,,,,,,,,,,,,,,,,,,,,,,,,p_5,001,2024-05-06_09h23.14.771,speech_rate,2023.2.3,None,2024-05-06 09h23.25.942801 -0700,
,Someday_9_condition-4x.wav,Someday__Someday__Maybe__Unabridged___File_008_of_116_1.wav,For the Stevie Nicks fan club Jane seriously say something helpful She tilted her head studying me carefully Honestly Franny all I can think of to say is you look like you work at a really great bakery in Maine I have class tonight after my audition so today I go for young mom meets acting class neutral black sweater black tights short black wool skirt and my Doc Martin Oxford lace up shoes Not super mom ish but practical for walking,What does Jane say the narrator looks like?,A. Like she works at a bakery,B. Like she is a movie star,C. Like she is a student at Oxford,D. Like she is a mom,A. Like she works at a bakery,yes,7.5175,,,,,,,,,,,,,0,19,19,19,,,,,,,,,,,,,,,,,,,,,,,,,,,,,,,,,,,,,,,,,,,,,,,,,,,,,1176.632949125,1184.2163351670001,0,,,1,7.573142500000131,7.573145374999967,0,,,0,,,,,,,,,,,,,,,,,,,,,,,,,,,,,,p_5,001,2024-05-06_09h23.14.771,speech_rate,2023.2.3,None,2024-05-06 09h23.25.942801 -0700,
,Someday_85_condition-5x.wav,Someday__Someday__Maybe__Unabridged___File_038_of_116_1.wav,He hands me a paper badge with my name printed on it and says Yes it's okay for me to go up The elevator empties out around the 20th floor so I quickly try to use the smoked mirror walls to check my face and hair and outfit I'm wearing my black stretchy turtleneck with my black wool mini skirt black tights and Doc Martens lace up boots And now I can see in the reflection in the elevator mirror that the skirt is too short I try to pull it down but then my sweater isn't long enough and if I pull the skirt down to where it looks better an inch of my stomach shows,What does the narrator realize about her outfit when she checks her reflection?,A. Her turtleneck is too tight,B. Her boots don't match,C. Her skirt is too short,D. Her hair is a mess,C. Her skirt is too short,no,6.012,,,,,,,,,,,,,0,20,20,20,,,,,,,,,1184.224629209,,,,,,,,,,,,,,,1188.8833268340002,1188.8987648336667,1188.8953498340002,1194.916465167,1194.918347042,1194.9296201670002,1195.137391709,1195.137391709,1196.348418584,1198.256091084,2.025,2.6465476250000393,1,[1.9197430410001743],[1.9197451659999842],,,,,,,,,,,,,,,1198.2564818750002,1208.5071682920002,0,,,0,,,1,10.242233415999863,10.242235832999995,0,,,,,,,,,,1184.2169391250002,1184.224629209,1184.224629209,1184.224629209,1188.883080417,1,[4.664365249999946],[4.6643681670000205],,,,,,,,,,,,,p_5,001,2024-05-06_09h23.14.771,speech_rate,2023.2.3,None,2024-05-06 09h23.25.942801 -0700,
,Someday_27_condition-3x.wav,Someday__Someday__Maybe__Unabridged___File_016_of_116_0.wav,And maybe we'll go out sometime and maybe we'll fall in love and someday we'll happen to be walking down this very street and he'll say remember that day when we accidentally ran into each other here But none of that can happen if he walks by me on the street today I make my way across 45th Street and hover near a trash can digging in my bag as if I'm looking for something I need to throw out waiting for his light to change Finally I can see him start to walk across the street I look away so he doesn't see me staring at him and when I glance up again I've lost him in the crowd,What is the narrator's hope regarding the person she encounters on the street?,A. To avoid meeting them,B. To have a chance encounter,C. To never see them again,D. To get their phone number,B. To have a chance encounter,no,11.085,,,,,,,,,,,,,0,21,21,21,,,,,,,,,1208.5154575840002,,,,,,,,,,,,,,,1212.9389573340002,1212.9545028756668,1212.9558583340001,1224.0407360420002,1224.041687417,1224.052889709,1224.258339209,1224.258339209,1228.08496825,1229.0706918340002,5.008333333333333,4.007217000000082,1,[0.9954127089999929],[0.9954150839998874],,,,,,,,,,,,,,,1229.071124125,1239.837320542,0,,,1,10.757321832999878,10.7573245829999,0,,,0,,,,,,,,,,1208.507632459,1208.5154575840002,1208.5154575840002,1208.5154575840002,1212.938705834,1,[4.429745292000007],[4.4297482079998645],,,,,,,,,,,,,p_5,001,2024-05-06_09h23.14.771,speech_rate,2023.2.3,None,2024-05-06 09h23.25.942801 -0700,
,Someday_104_condition.wav,Someday__Someday__Maybe__Unabridged___File_047_of_116_0.wav,Do you feel good about it I'm not sure I think so The audience laughed Lots of people said I did well But I have no idea who any of them were or if they were the ones I needed to impress But the laughing thing was getting such a positive reaction from the audience The writer decided to give me a line Jane's eyes go wide No way I know I got really excited too Which is so dumb when you think about it I've done whole plays in summer stock and all those scenes in class,What positive outcome does the narrator mention regarding her audition?,A. The writer decided to give her a line,B. Jane was impressed with her performance,C. She received a standing ovation,D. She secured a lead role in the play,A. The writer decided to give her a line,yes,29.18,,,,,,,,,,,,,0,22,22,22,0,0,0,0,0,0,0,0,1276.770243209,,,,,,,,,,,,,,,1241.092071625,1241.1242470833333,1241.122924959,1270.29322825,1270.305801959,1270.327363667,1270.5406231670001,1270.5406231670001,1273.893247417,1275.2929328750001,9.049999999999999,3.5407290830000875,1,[1.4096426659998542],[1.4096452500000396],,,,,,,1276.7426553750001,1276.770243209,1276.770243209,1305.240120459,The character made the audeince laugh and got a line in the play but she has also been in plays before,1,[28.49390362500003],[28.49390670799994],,,,,,,,,,,,,,,,,,,,,,1239.837866,1239.851209209,1239.851209209,1239.851209209,1241.0918795,1,[1.2525031249999756],[1.2525060000000394],1275.2934668750001,1275.302791792,1276.741778084,1,[1.4471723750000365],[1.4471845410000697],,,,,,,p_5,001,2024-05-06_09h23.14.771,speech_rate,2023.2.3,None,2024-05-06 09h23.25.942801 -0700,
,Someday_104_condition.wav,Someday__Someday__Maybe__Unabridged___File_047_of_116_0.wav,Do you feel good about it I'm not sure I think so The audience laughed Lots of people said I did well But I have no idea who any of them were or if they were the ones I needed to impress But the laughing thing was getting such a positive reaction from the audience The writer decided to give me a line Jane's eyes go wide No way I know I got really excited too Which is so dumb when you think about it I've done whole plays in summer stock and all those scenes in class,What positive outcome does the narrator mention regarding her audition?,A. The writer decided to give her a line,B. Jane was impressed with her performance,C. She received a standing ovation,D. She secured a lead role in the play,A. The writer decided to give her a line,yes,29.18,,,,,,,,,,,,,0,22,22,22,0,0,0,0,,,,,,,,,,,,,,,,,,,,,,,,,,,,,,,,,,,,,,,,,,,,,,,,,,,,,,,,,,,,,,,,,,,,,,,,,,,,,,,,,,,,,,,,,,p_5,001,2024-05-06_09h23.14.771,speech_rate,2023.2.3,None,2024-05-06 09h23.25.942801 -0700,
,Someday_104_condition.wav,Someday__Someday__Maybe__Unabridged___File_047_of_116_0.wav,Do you feel good about it I'm not sure I think so The audience laughed Lots of people said I did well But I have no idea who any of them were or if they were the ones I needed to impress But the laughing thing was getting such a positive reaction from the audience The writer decided to give me a line Jane's eyes go wide No way I know I got really excited too Which is so dumb when you think about it I've done whole plays in summer stock and all those scenes in class,What positive outcome does the narrator mention regarding her audition?,A. The writer decided to give her a line,B. Jane was impressed with her performance,C. She received a standing ovation,D. She secured a lead role in the play,A. The writer decided to give her a line,yes,29.18,,,,,,,,,,,,,0,22,22,22,,,,,,,,,,,,,,,,,,,,,,,,,,,,,,,,,,,,,,,,,,,,,,,,,,,,,1305.240615375,1316.45765875,1,11.205842209000139,11.205845041999964,0,,,0,,,0,,,,,,,,,,,,,,,,,,,,,,,,,,,,,,p_5,001,2024-05-06_09h23.14.771,speech_rate,2023.2.3,None,2024-05-06 09h23.25.942801 -0700,
,Someday_122_condition-4x.wav,Someday__Someday__Maybe__Unabridged___File_054_of_116_2.wav,When I first started watching it was just for a few minutes right after Lisa and before the first commercial break I was more fascinated than interested I would use the show as a kind of acting exercise challenging myself with the hokey dialogue saying the lines out loud to myself just to see if I could make the scenes feel more real than the actors on the show did I wondered if it was the actor's fault that the whole thing seemed so ridiculous or if there's truly nothing you can do to make it less phony given how phony it looks,How does the narrator approach the show?,A. As a truly fascinating show,B. As an acting practice,C. She never watches it,D. As a way to pass some quality time,B. As an acting practice,yes,7.3875,,,,,,,,,,,,,0,23,23,23,0,0,0,0,0,0,0,0,1331.45884275,,,,,,,,,,,,,,,1319.173772,1319.1895337506667,1319.187181042,1326.573681542,1326.579290542,1326.5900262920002,1326.853389667,1326.853389667,1328.9578686670002,1329.7083939170002,2.091666666666667,2.3431092499999977,1,[0.7597376659998645],[0.7597402080000393],,,,,,,1331.4468511250002,1331.45884275,1331.45884275,1347.457850875,character is having some inner monologue,1,[16.00754466599983],[16.007547665999937],,,,,,,,,,,,,,,,,,,,,,1316.458239542,1316.464441417,1316.464441417,1316.464441417,1319.173531209,1,[2.7146913340000083],[2.7146940840000298],1329.70887425,1329.7139442090001,1331.4454317920001,1,[1.7349701669998012],[1.7349827919999825],,,,,,,p_5,001,2024-05-06_09h23.14.771,speech_rate,2023.2.3,None,2024-05-06 09h23.25.942801 -0700,
,Someday_122_condition-4x.wav,Someday__Someday__Maybe__Unabridged___File_054_of_116_2.wav,When I first started watching it was just for a few minutes right after Lisa and before the first commercial break I was more fascinated than interested I would use the show as a kind of acting exercise challenging myself with the hokey dialogue saying the lines out loud to myself just to see if I could make the scenes feel more real than the actors on the show did I wondered if it was the actor's fault that the whole thing seemed so ridiculous or if there's truly nothing you can do to make it less phony given how phony it looks,How does the narrator approach the show?,A. As a truly fascinating show,B. As an acting practice,C. She never watches it,D. As a way to pass some quality time,B. As an acting practice,yes,7.3875,,,,,,,,,,,,,0,23,23,23,0,0,0,0,,,,,,,,,,,,,,,,,,,,,,,,,,,,,,,,,,,,,,,,,,,,,,,,,,,,,,,,,,,,,,,,,,,,,,,,,,,,,,,,,,,,,,,,,,p_5,001,2024-05-06_09h23.14.771,speech_rate,2023.2.3,None,2024-05-06 09h23.25.942801 -0700,
,Someday_122_condition-4x.wav,Someday__Someday__Maybe__Unabridged___File_054_of_116_2.wav,When I first started watching it was just for a few minutes right after Lisa and before the first commercial break I was more fascinated than interested I would use the show as a kind of acting exercise challenging myself with the hokey dialogue saying the lines out loud to myself just to see if I could make the scenes feel more real than the actors on the show did I wondered if it was the actor's fault that the whole thing seemed so ridiculous or if there's truly nothing you can do to make it less phony given how phony it looks,How does the narrator approach the show?,A. As a truly fascinating show,B. As an acting practice,C. She never watches it,D. As a way to pass some quality time,B. As an acting practice,yes,7.3875,,,,,,,,,,,,,0,23,23,23,,,,,,,,,,,,,,,,,,,,,,,,,,,,,,,,,,,,,,,,,,,,,,,,,,,,,1347.4583710840002,1357.6270638340002,0,,,1,10.159146500000134,10.159149750000097,0,,,0,,,,,,,,,,,,,,,,,,,,,,,,,,,,,,p_5,001,2024-05-06_09h23.14.771,speech_rate,2023.2.3,None,2024-05-06 09h23.25.942801 -0700,
,Someday_18_condition.wav,Someday__Someday__Maybe__Unabridged___File_011_of_116_1.wav,The D train between Brooklyn and Manhattan is one of my favorite lines because at one the train emerges from underground and goes high over the river along the Manhattan Bridge Sometimes I put on my headphones and listen to music Sometimes I do the New York Times crossword puzzle And sometimes I read But no matter what else I'm doing I consider it very bad luck if I forget to look up as the train crosses over the East River even just for a second before it goes back underground It's just a superstition,Why does the narrator always look up when the D train crosses the East River?,A. To enjoy the view,B. To avoid bad luck,C. To read the subway signs,D. To see if it's raining,B. To avoid bad luck,yes,28.04,,,,,,,,,,,,,0,24,24,24,0,0,0,0,0,0,0,0,1397.1333347920001,,,,,,,,,,,,,,,1359.948791209,1359.9809200003333,1359.9790480840002,1388.0169612920001,1388.027458542,1388.0497355,1388.2829484170002,1388.2829484170002,1391.387598584,1392.0498775840001,8.025,3.309778832999882,1,[0.6715474159998394],[0.6715496249998978],,,,,,,1397.1215395840002,1397.1333347920001,1397.1333347920001,1424.279505875,character watching the train as it goes under a bridge and she also talks about what she does in her spare time,1,[27.154650083999968],[27.15465320899989],,,,,,,,,,,,,,,,,,,,,,1357.6276292920002,1357.635601917,1357.635601917,1357.635601917,1359.9485120420002,1,[2.319134166999902],[2.319136999999955],1392.0504041250001,1392.0596750000002,1397.1208154170001,1,[5.069799041000124],[5.069801750000124],,,,,,,p_5,001,2024-05-06_09h23.14.771,speech_rate,2023.2.3,None,2024-05-06 09h23.25.942801 -0700,
,Someday_18_condition.wav,Someday__Someday__Maybe__Unabridged___File_011_of_116_1.wav,The D train between Brooklyn and Manhattan is one of my favorite lines because at one the train emerges from underground and goes high over the river along the Manhattan Bridge Sometimes I put on my headphones and listen to music Sometimes I do the New York Times crossword puzzle And sometimes I read But no matter what else I'm doing I consider it very bad luck if I forget to look up as the train crosses over the East River even just for a second before it goes back underground It's just a superstition,Why does the narrator always look up when the D train crosses the East River?,A. To enjoy the view,B. To avoid bad luck,C. To read the subway signs,D. To see if it's raining,B. To avoid bad luck,yes,28.04,,,,,,,,,,,,,0,24,24,24,0,0,0,0,,,,,,,,,,,,,,,,,,,,,,,,,,,,,,,,,,,,,,,,,,,,,,,,,,,,,,,,,,,,,,,,,,,,,,,,,,,,,,,,,,,,,,,,,,p_5,001,2024-05-06_09h23.14.771,speech_rate,2023.2.3,None,2024-05-06 09h23.25.942801 -0700,
,Someday_18_condition.wav,Someday__Someday__Maybe__Unabridged___File_011_of_116_1.wav,The D train between Brooklyn and Manhattan is one of my favorite lines because at one the train emerges from underground and goes high over the river along the Manhattan Bridge Sometimes I put on my headphones and listen to music Sometimes I do the New York Times crossword puzzle And sometimes I read But no matter what else I'm doing I consider it very bad luck if I forget to look up as the train crosses over the East River even just for a second before it goes back underground It's just a superstition,Why does the narrator always look up when the D train crosses the East River?,A. To enjoy the view,B. To avoid bad luck,C. To read the subway signs,D. To see if it's raining,B. To avoid bad luck,yes,28.04,,,,,,,,,,,,,0,24,24,24,,,,,,,,,,,,,,,,,,,,,,,,,,,,,,,,,,,,,,,,,,,,,,,,,,,,,1424.279889584,1431.587240542,0,,,1,7.2979927500000485,7.297995291999996,0,,,0,,,,,,,,,,,,,,,,,,,,,,,,,,,,,,p_5,001,2024-05-06_09h23.14.771,speech_rate,2023.2.3,None,2024-05-06 09h23.25.942801 -0700,
,Someday_83_condition-2x.wav,Someday__Someday__Maybe__Unabridged___File_037_of_116_4.wav,I sound odd to myself as if I'm playing the part of a professional actress who has meetings all the time and is sort of blasé about them I loved Barney Sparks I want to tell Dan but I'm suspicious of anything that seems too easy I'm not sure why I can't say that now and not sure why I didn't jump at the chance to say yes in Barney's office It feels like I'm an actor in an Italian movie from the 60s saying the placeholder lines into the camera waiting for the real ones that come later,What is the narrator suspicious of?,A. Things that take too long,B. Things that are hard to do,C. Things that seem controversial,D. Things that seem too easy,D. Things that seem too easy,yes,14.515,,,,,,,,,,,,,0,25,25,25,0,0,0,0,0,0,0,0,1463.531021042,,,,,,,,,,,,,,,1434.702366,1434.7182160836667,1434.717514292,1449.2306660420002,1449.2354547090001,1449.246713792,1449.501295834,1449.501295834,1451.507003167,1452.153908667,5.058333333333334,2.232989957999962,1,[0.6559316249999938],[0.6559343330000047],,,,,,,1463.517128292,1463.531021042,1463.531021042,1492.1341091670001,is talking to someone and is also talking about her line in the play,1,[28.61387241700004],[28.613875374999907],,,,,,,,,,,,,,,,,,,,,,1431.5877004590002,1431.594143209,1431.594143209,1431.594143209,1434.702168917,1,[3.113009624999904],[3.113012291999894],1452.154395542,1452.1630428340002,1463.516382584,1,[11.361503290999963],[11.361505999999963],,,,,,,p_5,001,2024-05-06_09h23.14.771,speech_rate,2023.2.3,None,2024-05-06 09h23.25.942801 -0700,
,Someday_83_condition-2x.wav,Someday__Someday__Maybe__Unabridged___File_037_of_116_4.wav,I sound odd to myself as if I'm playing the part of a professional actress who has meetings all the time and is sort of blasé about them I loved Barney Sparks I want to tell Dan but I'm suspicious of anything that seems too easy I'm not sure why I can't say that now and not sure why I didn't jump at the chance to say yes in Barney's office It feels like I'm an actor in an Italian movie from the 60s saying the placeholder lines into the camera waiting for the real ones that come later,What is the narrator suspicious of?,A. Things that take too long,B. Things that are hard to do,C. Things that seem controversial,D. Things that seem too easy,D. Things that seem too easy,yes,14.515,,,,,,,,,,,,,0,25,25,25,0,0,0,0,,,,,,,,,,,,,,,,,,,,,,,,,,,,,,,,,,,,,,,,,,,,,,,,,,,,,,,,,,,,,,,,,,,,,,,,,,,,,,,,,,,,,,,,,,p_5,001,2024-05-06_09h23.14.771,speech_rate,2023.2.3,None,2024-05-06 09h23.25.942801 -0700,
,Someday_83_condition-2x.wav,Someday__Someday__Maybe__Unabridged___File_037_of_116_4.wav,I sound odd to myself as if I'm playing the part of a professional actress who has meetings all the time and is sort of blasé about them I loved Barney Sparks I want to tell Dan but I'm suspicious of anything that seems too easy I'm not sure why I can't say that now and not sure why I didn't jump at the chance to say yes in Barney's office It feels like I'm an actor in an Italian movie from the 60s saying the placeholder lines into the camera waiting for the real ones that come later,What is the narrator suspicious of?,A. Things that take too long,B. Things that are hard to do,C. Things that seem controversial,D. Things that seem too easy,D. Things that seem too easy,yes,14.515,,,,,,,,,,,,,0,25,25,25,,,,,,,,,,,,,,,,,,,,,,,,,,,,,,,,,,,,,,,,,,,,,,,,,,,,,1492.134571834,1497.5774913750001,1,5.43359737500009,5.433599875000027,0,,,0,,,0,,,,,,,,,,,,,,,,,,,,,,,,,,,,,,p_5,001,2024-05-06_09h23.14.771,speech_rate,2023.2.3,None,2024-05-06 09h23.25.942801 -0700,
,Someday_88_condition-3x.wav,Someday__Someday__Maybe__Unabridged___File_039_of_116_1.wav,It always seems like something that I should like more than I do though some flavors taste like dirty bath water Or maybe I don't like it on principle because I know it's supposed to be healthy If it was filled with calories and fat would I like it more and why oh why am I thinking about this right now This is hardly the time to make a ruling on such a difficult subject What no scotch I say and I can immediately feel my face flush red I put my hand on my hip in what I hope is a jaunty manner in an attempt to cover for the fact that I'm trying too hard,Why does the narrator say she puts her hand on her hip,A. To hide that she is trying too hard,B. To look attractive,C. To rest her hand,D. To be serious,A. To hide that she is trying too hard,no,10.8075,,,,,,,,,,,,,0,26,26,26,,,,,,,,,1497.5854524170002,,,,,,,,,,,,,,,1500.707083042,1500.7226183336668,1500.723475792,1511.534244834,1511.5363119590002,1511.557900667,1511.830882792,1511.830882792,1515.5728637500001,1519.179581667,2.966666666666667,3.9903440420000607,1,[3.615982957999904],[3.615985624999894],,,,,,,,,,,,,,,1519.1800560000001,1537.426108959,0,,,1,18.238122791999785,18.238125957999955,0,,,0,,,,,,,,,,1497.578055875,1497.5854524170002,1497.5854524170002,1497.5854524170002,1500.706854667,1,[3.1271221670001523],[3.127124917000174],,,,,,,,,,,,,p_5,001,2024-05-06_09h23.14.771,speech_rate,2023.2.3,None,2024-05-06 09h23.25.942801 -0700,
,Someday_50_condition.wav,Someday__Someday__Maybe__Unabridged___File_025_of_116_3.wav,It was a high concept half hour pilot he said Cutting edge was the exact phrase he used I believe He said it had taken some convincing to get me an audition since I had no television experience but they'd agreed to see me So I read the script and it didn't seem like a TV show to me but I'm used to reading plays where anything can happen in the world of someone's memory or whatever You were used to reading things that were abstract Leighton says Or imaginative not totally set in reality yes So I'm picturing what it could be if done correctly,What was the description given for the pilot in the story?,A. A low-budget independent film,B. A high-concept half-hour pilot,C. A traditional TV show format,D. A full-length feature film,B. A high-concept half-hour pilot,no,29.73,,,,,,,,,,,,,0,27,27,27,,,,,,,,,1537.4335499590002,,,,,,,,,,,,,,,1539.603476084,1539.6354576673334,1539.6361731670002,1569.3707435420001,1569.372965125,1569.39514975,1569.606241125,1569.606241125,1575.4045149590002,1577.0895332090001,8.975,5.985117333999824,1,[1.6943392080002013],[1.6943416250001064],,,,,,,,,,,,,,,1577.090010292,1581.707424875,0,,,1,4.6085979580000185,4.608600791999834,0,,,0,,,,,,,,,,1537.42658,1537.4335499590002,1537.4335499590002,1537.4335499590002,1539.6031930420002,1,[2.175202249999984],[2.1752053329998944],,,,,,,,,,,,,p_5,001,2024-05-06_09h23.14.771,speech_rate,2023.2.3,None,2024-05-06 09h23.25.942801 -0700,
,Someday_87_condition-5x.wav,Someday__Someday__Maybe__Unabridged___File_039_of_116_0.wav,The reception area is a soothing soft grey Everything is plush and velvet The carpet looks like shiny grey silk and the sofa is a silvery suede that appears freshly brushed as though no one has ever sat on it There's a long reception desk behind which sit two of the most beautiful people I have ever seen also swathed in grey The perfect specimen male is reading a script and the perfect specimen female is on a headset talking to someone in a British accent,How does the narrator describe the reception area of Absolute Artists?,A. It's brightly colored,B. It's cold and uninviting,C. It's plush and soothing,D. It's chaotic and messy,C. It's plush and soothing,no,5.696,,,,,,,,,,,,,0,28,28,28,,,,,,,,,1581.72082675,,,,,,,,,,,,,,,1584.9764115,1584.9889685416667,1584.988540542,1590.6784372500001,1590.6906915000002,1590.701422542,1590.907928375,1590.907928375,1592.7046689170002,1593.247363792,1.9333333333333331,1.975779999999986,1,[0.5549401670000407],[0.5549430420001045],,,,,,,,,,,,,,,1593.247828042,1599.173491834,0,,,0,,,0,,,1,5.916549874999873,5.91655291699999,,,,,,,,1581.707942292,1581.72082675,1581.72082675,1581.72082675,1584.976149,1,[3.2673566249998203],[3.267366791999848],,,,,,,,,,,,,p_5,001,2024-05-06_09h23.14.771,speech_rate,2023.2.3,None,2024-05-06 09h23.25.942801 -0700,
,Someday_51_condition-2x.wav,Someday__Someday__Maybe__Unabridged___File_025_of_116_4.wav,And he says Dina pauses as if the next part of the story is particularly hard to tell And he says only two things will happen with this One it's a giant hit and you're thanking me every year at the Emmys Or two they'll make the pilot it won't work it'll never air There's no scenario in between If for some reason they put this on the air and it isn't 100 fantastic he said it'll never last Dina and Leighton say together Then Dina slaps her palm to her forehead as if she still can't believe it,What does Dina do after telling the story?,A. She shakes her head,B. She slaps her palm to her forehead,C. She cries,D. She sits in silence,B. She slaps her palm to her forehead,yes,14.98496875,,,,,,,,,,,,,0,29,29,29,0,0,0,0,0,0,0,0,1626.409107334,,,,,,,,,,,,,,,1602.957196792,1602.9725038756667,1602.9772036670001,1617.992749125,1617.962903417,1617.9848879170002,1618.193183459,1618.193183459,1621.016700917,1622.457166875,6.008333333333333,3.0049784579998686,1,[1.449294000000009],[1.44929645800039],,,,,,,1626.3979519170002,1626.409107334,1626.409107334,1651.564849709,Either the pilot will take off and be a big hit or it will never air. There is not in between. ,1,[25.16364412499979],[25.16364674999977],,,,,,,,,,,,,,,,,,,,,,1599.174102209,1599.181763709,1599.181763709,1599.181763709,1602.956913375,1,[3.7810511249999763],[3.7810539999998127],1622.457708542,1622.462667834,1626.3971537090001,1,[3.938938791000055],[3.9389415000000554],,,,,,,p_5,001,2024-05-06_09h23.14.771,speech_rate,2023.2.3,None,2024-05-06 09h23.25.942801 -0700,
,Someday_51_condition-2x.wav,Someday__Someday__Maybe__Unabridged___File_025_of_116_4.wav,And he says Dina pauses as if the next part of the story is particularly hard to tell And he says only two things will happen with this One it's a giant hit and you're thanking me every year at the Emmys Or two they'll make the pilot it won't work it'll never air There's no scenario in between If for some reason they put this on the air and it isn't 100 fantastic he said it'll never last Dina and Leighton say together Then Dina slaps her palm to her forehead as if she still can't believe it,What does Dina do after telling the story?,A. She shakes her head,B. She slaps her palm to her forehead,C. She cries,D. She sits in silence,B. She slaps her palm to her forehead,yes,14.98496875,,,,,,,,,,,,,0,29,29,29,0,0,0,0,,,,,,,,,,,,,,,,,,,,,,,,,,,,,,,,,,,,,,,,,,,,,,,,,,,,,,,,,,,,,,,,,,,,,,,,,,,,,,,,,,,,,,,,,,p_5,001,2024-05-06_09h23.14.771,speech_rate,2023.2.3,None,2024-05-06 09h23.25.942801 -0700,
,Someday_51_condition-2x.wav,Someday__Someday__Maybe__Unabridged___File_025_of_116_4.wav,And he says Dina pauses as if the next part of the story is particularly hard to tell And he says only two things will happen with this One it's a giant hit and you're thanking me every year at the Emmys Or two they'll make the pilot it won't work it'll never air There's no scenario in between If for some reason they put this on the air and it isn't 100 fantastic he said it'll never last Dina and Leighton say together Then Dina slaps her palm to her forehead as if she still can't believe it,What does Dina do after telling the story?,A. She shakes her head,B. She slaps her palm to her forehead,C. She cries,D. She sits in silence,B. She slaps her palm to her forehead,yes,14.98496875,,,,,,,,,,,,,0,29,29,29,,,,,,,,,,,,,,,,,,,,,,,,,,,,,,,,,,,,,,,,,,,,,,,,,,,,,1651.5653536250002,1655.4924569590003,0,,,1,3.918519957999706,3.9185230829998545,0,,,0,,,,,,,,,,,,,,,,,,,,,,,,,,,,,,p_5,001,2024-05-06_09h23.14.771,speech_rate,2023.2.3,None,2024-05-06 09h23.25.942801 -0700,
,Someday_79_condition-5x.wav,Someday__Someday__Maybe__Unabridged___File_036_of_116_1.wav,But something is holding me back It would be so easy to say yes and leave this room with an agent almost too easy I Look around the room and the walls of old scripts and playbills that seemed warm and friendly when I first came in Now look cluttered and shabby the leather on the arms of this giant lumpy chair is worn thin The stuffing is peeking through one of the seams and the sunlight streaming through the window is cloudy with dust I stammer a bit,What is one of the factors that is preventing the narrator from immediately accepting the agent's offer?,A. The agent's appearance,B. The condition of the room,C. The agent's attitude,D. The lack of other actors,B. The condition of the room,yes,5.69,,,,,,,,,,,,,0,30,30,30,0,0,0,0,0,0,0,0,1667.525336834,,,,,,,,,,,,,,,1657.7328324590003,1657.7481419586668,1657.744011584,1663.442882667,1663.445155084,1663.456358334,1663.712581834,1663.712581834,1666.0699568750001,1666.604713917,1.7833333333333332,2.586145416999898,1,[0.5442264579996845],[0.5442287079999915],,,,,,,1667.5134054999999,1667.525336834,1667.525336834,1675.135333584,contest,1,[7.618530333999843],[7.618533500000012],,,,,,,,,,,,,,,,,,,,,,1655.492919834,1655.4988170420002,1655.4988170420002,1655.4988170420002,1657.7325944170002,1,[2.238051667000036],[2.238054667000142],1666.605218834,1666.610656792,1667.512629625,1,[0.9067823330001374],[0.9067853329997888],,,,,,,p_5,001,2024-05-06_09h23.14.771,speech_rate,2023.2.3,None,2024-05-06 09h23.25.942801 -0700,
,Someday_79_condition-5x.wav,Someday__Someday__Maybe__Unabridged___File_036_of_116_1.wav,But something is holding me back It would be so easy to say yes and leave this room with an agent almost too easy I Look around the room and the walls of old scripts and playbills that seemed warm and friendly when I first came in Now look cluttered and shabby the leather on the arms of this giant lumpy chair is worn thin The stuffing is peeking through one of the seams and the sunlight streaming through the window is cloudy with dust I stammer a bit,What is one of the factors that is preventing the narrator from immediately accepting the agent's offer?,A. The agent's appearance,B. The condition of the room,C. The agent's attitude,D. The lack of other actors,B. The condition of the room,yes,5.69,,,,,,,,,,,,,0,30,30,30,0,0,0,0,,,,,,,,,,,,,,,,,,,,,,,,,,,,,,,,,,,,,,,,,,,,,,,,,,,,,,,,,,,,,,,,,,,,,,,,,,,,,,,,,,,,,,,,,,p_5,001,2024-05-06_09h23.14.771,speech_rate,2023.2.3,None,2024-05-06 09h23.25.942801 -0700,
,Someday_79_condition-5x.wav,Someday__Someday__Maybe__Unabridged___File_036_of_116_1.wav,But something is holding me back It would be so easy to say yes and leave this room with an agent almost too easy I Look around the room and the walls of old scripts and playbills that seemed warm and friendly when I first came in Now look cluttered and shabby the leather on the arms of this giant lumpy chair is worn thin The stuffing is peeking through one of the seams and the sunlight streaming through the window is cloudy with dust I stammer a bit,What is one of the factors that is preventing the narrator from immediately accepting the agent's offer?,A. The agent's appearance,B. The condition of the room,C. The agent's attitude,D. The lack of other actors,B. The condition of the room,yes,5.69,,,,,,,,,,,,,0,30,30,30,,,,,,,,,,,,,,,,,,,,,,,,,,,,,,,,,,,,,,,,,,,,,,,,,,,,,1675.135831125,1684.1539723340002,0,,,0,,,1,9.007282624999789,9.00728537499981,0,,,,,,,,,,,,,,,,,,,,,,,,,,,,,,p_5,001,2024-05-06_09h23.14.771,speech_rate,2023.2.3,None,2024-05-06 09h23.25.942801 -0700,
,Someday_94_condition-2x.wav,Someday__Someday__Maybe__Unabridged___File_041_of_116_1.wav,He doesn't say anything so I feel obligated to keep going It's as if I'm not driving this train anymore I'm just holding on trying not to crash completely I've always loved the theater I say Thank God It isn't original but it's TRUE at least My dad would take me when I was a kid to whatever little show was playing in our town in Connecticut and we'd also see most of what was in New Haven and sometimes we'd come into the city and it wasn't just theater It was ballet and music and modern dance too I pause,What is the narrator's childhood connection to the theater?,A. She used to perform in school plays,B. Her father would take her to various shows,C. She always dreamed of becoming an actor,D. She was part of a local theater group,B. Her father would take her to various shows,no,14.965,,,,,,,,,,,,,0,31,31,31,,,,,,,,,1684.161701209,,,,,,,,,,,,,,,1694.68382075,1694.6993567086668,1694.703417625,1709.678931542,1709.680722042,1709.702480542,1709.9208464590001,1709.9208464590001,1714.2837707090002,1715.035656167,7.016666666666667,4.556836166999801,1,[0.7612092089998441],[0.7612115419997281],,,,,,,,,,,,,,,1715.036091292,1727.890790042,0,,,1,12.845739874999708,12.845742791999783,0,,,0,,,,,,,,,,1684.154494167,1684.161701209,1684.161701209,1684.161701209,1694.6836065840002,1,[10.5275637499999],[10.52756649999992],,,,,,,,,,,,,p_5,001,2024-05-06_09h23.14.771,speech_rate,2023.2.3,None,2024-05-06 09h23.25.942801 -0700,
