index,wav_file,old_name,segment_text,question,C1,C2,C3,C4,C_correct,summary,duration,training.thisRepN,training.thisTrialN,training.thisN,training.thisIndex,sum_true.thisRepN,sum_true.thisTrialN,sum_true.thisN,sum_true.thisIndex,dummy_loop.thisRepN,dummy_loop.thisTrialN,dummy_loop.thisN,dummy_loop.thisIndex,experiment.thisRepN,experiment.thisTrialN,experiment.thisN,experiment.thisIndex,sum_true_exp.thisRepN,sum_true_exp.thisTrialN,sum_true_exp.thisN,sum_true_exp.thisIndex,dummy_loop_exp.thisRepN,dummy_loop_exp.thisTrialN,dummy_loop_exp.thisN,dummy_loop_exp.thisIndex,thisRow.t,notes,Experimenter.started,reminder.started,Experimenter.stopped,Instructions.started,Instructions.stopped,Start_Segment_Train.started,Play_train.started,Trial_counter_train.started,text_5.started,Start_Segment_Train.stopped,Play_train.numClicks,Play_train.timesOn,Play_train.timesOff,Training_Segment.started,Experimen_audio.started,polygon.started,polygon.stopped,Training_Segment.stopped,Rating.started,slider.started,text_3.started,button_2.started,Rating.stopped,slider.response,slider.rt,button_2.numClicks,button_2.timesOn,button_2.timesOff,Start_Summary.started,text_2.started,Start_Summary.stopped,summary_button.numClicks,summary_button.timesOn,summary_button.timesOff,Summary.started,textbox.started,summary_done.started,Summary.stopped,textbox.text,summary_done.numClicks,summary_done.timesOn,summary_done.timesOff,Multiple_Choice_2.started,Multiple_Choice_2.stopped,A.numClicks,A.timesOn,A.timesOff,B.numClicks,B.timesOn,B.timesOff,C.numClicks,C.timesOn,C.timesOff,D.numClicks,D.timesOn,D.timesOff,Start_Exp.started,Start_exp.started,Start.started,Start_Exp.stopped,Start.numClicks,Start.timesOn,Start.timesOff,Start_Segment.started,Play.started,Trial_counter.started,text_6.started,Start_Segment.stopped,Play.numClicks,Play.timesOn,Play.timesOff,Start_Sum_Exp.started,text_4.started,Start_Sum_Exp.stopped,sum_button.numClicks,sum_button.timesOn,sum_button.timesOff,textbox.stopped,summary_done.stopped,Thanks.started,text_7.started,text_7.stopped,Thanks.stopped,participant,session,date,expName,psychopyVersion,frameRate,expStart,
1,Someday_trial_condition.wav,Someday__Someday__Maybe__Unabridged___File_069_of_116_3.wav,It's a gut feeling You can't nickname him He's a real person not a joke person You don't have to tell me Only a real person would try to shake hands with my best friend's foot Jane you're not explaining it right It was very romantic And thankfully our steaming bowl of bright yellow melted cheese with flecks of green chilies arrives Listen she says dipping a chip into the creamy depths You're the one with the brand new personality I'm still the same old Jane,"What does the narrator have, according to Jane?",A) A new recipe for dipping sauce,B) A new personality,C) A new restaurant suggestion,D) A new pair of shoes,B) A new personality,yes,30,0,0,0,0,0,0,0,0,0,0,0,0,,,,,,,,,,,,,355.29967975,,0.010326958000405284,0.020368333000078565,295.2623574580002,295.26237066700014,306.56434120799986,306.5740802500004,306.59190966700044,306.59190966700044,306.59190966700044,309.9319102500003,1,[3.3478894999998374],[3.347892374999901],309.9323157079998,309.9810704999998,309.973859875,339.99114179200024,339.9616236669999,339.9832302499999,340.19502012500016,340.19502012500016,344.2264796670006,345.61177466700065,9.016666666666666,4.215610624999499,1,[1.3982664999994086],[1.3982690419998107],345.6124917920006,345.6183687500006,355.2622678329999,1,[9.64909204200012],[9.649094833000163],355.2631624579999,355.29967975,355.29967975,385.2691768750001,two women sitting together eating discussing why she would shake hands with her best friend,0,,,,,,,,,,,,,,,,,,,,,,,,,,,,,,,,,,,,,,,,,,,,p_7,001,2024-05-08_13h59.42.954,speech_rate,2023.2.3,None,2024-05-08 13h59.57.937066 -0700,
1,Someday_trial_condition.wav,Someday__Someday__Maybe__Unabridged___File_069_of_116_3.wav,It's a gut feeling You can't nickname him He's a real person not a joke person You don't have to tell me Only a real person would try to shake hands with my best friend's foot Jane you're not explaining it right It was very romantic And thankfully our steaming bowl of bright yellow melted cheese with flecks of green chilies arrives Listen she says dipping a chip into the creamy depths You're the one with the brand new personality I'm still the same old Jane,"What does the narrator have, according to Jane?",A) A new recipe for dipping sauce,B) A new personality,C) A new restaurant suggestion,D) A new pair of shoes,B) A new personality,yes,30,0,0,0,0,0,0,0,0,,,,,,,,,,,,,,,,,,,,,,,,,,,,,,,,,,,,,,,,,,,,,,,,,,,,,,,,,,,,,,,,,,,,,,,,,,,,,,,,,,,,,,,,,,,,,,,,,,,,,,p_7,001,2024-05-08_13h59.42.954,speech_rate,2023.2.3,None,2024-05-08 13h59.57.937066 -0700,
1,Someday_trial_condition.wav,Someday__Someday__Maybe__Unabridged___File_069_of_116_3.wav,It's a gut feeling You can't nickname him He's a real person not a joke person You don't have to tell me Only a real person would try to shake hands with my best friend's foot Jane you're not explaining it right It was very romantic And thankfully our steaming bowl of bright yellow melted cheese with flecks of green chilies arrives Listen she says dipping a chip into the creamy depths You're the one with the brand new personality I'm still the same old Jane,"What does the narrator have, according to Jane?",A) A new recipe for dipping sauce,B) A new personality,C) A new restaurant suggestion,D) A new pair of shoes,B) A new personality,yes,30,0,0,0,0,,,,,,,,,,,,,,,,,,,,,,,,,,,,,,,,,,,,,,,,,,,,,,,,,,,,,,,,,,,,,,,,,385.26953845800017,399.36428658300065,0,,,1,14.073518749999494,14.073521166999853,0,,,0,,,,,,,,,,,,,,,,,,,,,,,,,,,,,,p_7,001,2024-05-08_13h59.42.954,speech_rate,2023.2.3,None,2024-05-08 13h59.57.937066 -0700,
2,Someday_trial_condition-5x.wav,Someday__Someday__Maybe__Unabridged___File_103_of_116_1.wav,Isn't halfway where two people usually meet Well in general maybe But tonight this is sort of a big deal for me It's my night I'm not sure you you don't think I get it Well no I mean how could you I'm having trouble making sense of this conversation James is speaking with authority but there's something wrong Something feels so wrong somehow I don't care about waving and smiling and having my picture taken with him,"How does James speak, according to the narrator?",A) With compassion,B) With grief,C) With hesitation,D) With authority,D) With authority,yes,6.2,0,1,1,1,0,0,0,0,0,0,0,0,,,,,,,,,,,,,415.3324665420005,,,,,,,399.3649369579998,399.37240137499975,399.37240137499975,399.37240137499975,403.30607475000033,1,[3.9379870829998254],[3.9379897919998257],403.3063350829998,403.32183370866665,403.31825720800043,409.53364041700024,409.5154735420001,409.52568708299987,409.7897229170003,409.7897229170003,413.25270833300056,414.13245800000004,1.125,3.702925958000378,1,[0.8888918339998781],[0.8888942920002592],414.1329841249999,414.1375632500003,415.3195841249999,1,[1.1862118749995716],[1.1862144999995508],415.3202578750006,415.3324665420005,415.3324665420005,420.5832257080001,well,1,[5.259087417000046],[5.259090792000279],,,,,,,,,,,,,,,,,,,,,,,,,,,,,,,,,,,,,,,,,,p_7,001,2024-05-08_13h59.42.954,speech_rate,2023.2.3,None,2024-05-08 13h59.57.937066 -0700,
2,Someday_trial_condition-5x.wav,Someday__Someday__Maybe__Unabridged___File_103_of_116_1.wav,Isn't halfway where two people usually meet Well in general maybe But tonight this is sort of a big deal for me It's my night I'm not sure you you don't think I get it Well no I mean how could you I'm having trouble making sense of this conversation James is speaking with authority but there's something wrong Something feels so wrong somehow I don't care about waving and smiling and having my picture taken with him,"How does James speak, according to the narrator?",A) With compassion,B) With grief,C) With hesitation,D) With authority,D) With authority,yes,6.2,0,1,1,1,0,0,0,0,,,,,,,,,,,,,,,,,,,,,,,,,,,,,,,,,,,,,,,,,,,,,,,,,,,,,,,,,,,,,,,,,,,,,,,,,,,,,,,,,,,,,,,,,,,,,,,,,,,,,,p_7,001,2024-05-08_13h59.42.954,speech_rate,2023.2.3,None,2024-05-08 13h59.57.937066 -0700,
2,Someday_trial_condition-5x.wav,Someday__Someday__Maybe__Unabridged___File_103_of_116_1.wav,Isn't halfway where two people usually meet Well in general maybe But tonight this is sort of a big deal for me It's my night I'm not sure you you don't think I get it Well no I mean how could you I'm having trouble making sense of this conversation James is speaking with authority but there's something wrong Something feels so wrong somehow I don't care about waving and smiling and having my picture taken with him,"How does James speak, according to the narrator?",A) With compassion,B) With grief,C) With hesitation,D) With authority,D) With authority,yes,6.2,0,1,1,1,,,,,,,,,,,,,,,,,,,,,,,,,,,,,,,,,,,,,,,,,,,,,,,,,,,,,,,,,,,,,,,,,420.5836817919999,427.7845233329999,0,,,0,,,0,,,1,7.1899052080007095,7.189908207999906,,,,,,,,,,,,,,,,,,,,,,,,,,,,p_7,001,2024-05-08_13h59.42.954,speech_rate,2023.2.3,None,2024-05-08 13h59.57.937066 -0700,
,Someday_19_condition-5x.wav,Someday__Someday__Maybe__Unabridged___File_012_of_116_0.wav,No I'll push it his sister says giving him a little shove It's my callback The little boy shrinks back from the elevator buttons and I smile sympathetically at their mom but she seems mesmerized by a spot somewhere north of the top of my head so I decide to take a sudden interest in the laces of my shoes and endure the rest of the long creaky ride in silence Even in the best of elevators I think there's no place where time passes so slowly,Where is the narrator?,A. In an audition,B. In a kindergarten,C. In an elevator,D. In a parent's meeting,C. In an elevator,no,5.582,,,,,,,,,,,,,0,0,0,0,,,,,,,,,452.47760825000023,,,,,,,,,,,,,,,456.54070562500056,456.5561163336672,456.55356745800054,462.12375262500063,462.13964424999995,462.1509005830003,462.35753441700035,462.35753441700035,465.08923958300056,465.8227782080003,3.0166666666666666,2.9143241660003696,1,[0.7426889580001443],[0.7426912499995524],,,,,,,,,,,,,,,465.823453,474.14231091700003,1,8.310010541999873,8.310012874999302,0,,,0,,,0,,,427.78496562500004,427.7984900830006,427.7984900830006,452.4207294170001,1,[24.634880332999273],[24.63488587499978],452.4666693750005,452.47760825000023,452.47760825000023,452.47760825000023,456.540338625,1,[4.070330083999579],[4.0703328339996006],,,,,,,,,,,,,p_7,001,2024-05-08_13h59.42.954,speech_rate,2023.2.3,None,2024-05-08 13h59.57.937066 -0700,
,Someday_13_condition-3x.wav,Someday__Someday__Maybe__Unabridged___File_009_of_116_1.wav,After hanging up with my dad I think I hear Jane downstairs home from the set which means I might actually get something to eat before I get on the train I made it onto the actual wait list I call while coming down the stairs To see the famous nutritionist person Yes Also do I have a problem with cigarettes You seem to be doing just fine with them Jane says dumping a large brown bag onto the top of our never used oven with a thud She's wearing a trench coat we found at the Goodwill in Prospect Heights and her signature giant red vintage sunglasses,What is Jane's signature accessorize?,A. Red vintage sunglasses,B. A red trenchcoat,C. Red platform boots,D. A brown belt,A. Red vintage sunglasses,yes,11.38875,,,,,,,,,,,,,0,1,1,1,0,0,0,0,0,0,0,0,494.0198144169999,,,,,,,,,,,,,,,477.8721150420006,477.9015745833335,477.8898370830002,489.28604458300015,489.2963261670002,489.30747979199987,489.51174379199983,489.51174379199983,492.2349836250005,492.89904862500043,6.125,2.8992732920005437,1,[0.6771730419995947],[0.6771754999999757],,,,,,,494.0079757499998,494.0198144169999,494.0198144169999,520.6222586670001,she comes home from goodwill wearing sigature giant sunglasses ,1,[26.61105037500056],[26.611053333999735],,,,,,,,,,,,,,,,,,,,,,474.1432123330005,474.14971975000026,474.14971975000026,474.14971975000026,477.87183258300047,1,[3.72693929199977],[3.726950416999898],492.8995713330005,492.9052149170002,494.0071672080003,1,[1.1064021660004073],[1.1064125410002816],,,,,,,p_7,001,2024-05-08_13h59.42.954,speech_rate,2023.2.3,None,2024-05-08 13h59.57.937066 -0700,
,Someday_13_condition-3x.wav,Someday__Someday__Maybe__Unabridged___File_009_of_116_1.wav,After hanging up with my dad I think I hear Jane downstairs home from the set which means I might actually get something to eat before I get on the train I made it onto the actual wait list I call while coming down the stairs To see the famous nutritionist person Yes Also do I have a problem with cigarettes You seem to be doing just fine with them Jane says dumping a large brown bag onto the top of our never used oven with a thud She's wearing a trench coat we found at the Goodwill in Prospect Heights and her signature giant red vintage sunglasses,What is Jane's signature accessorize?,A. Red vintage sunglasses,B. A red trenchcoat,C. Red platform boots,D. A brown belt,A. Red vintage sunglasses,yes,11.38875,,,,,,,,,,,,,0,1,1,1,0,0,0,0,,,,,,,,,,,,,,,,,,,,,,,,,,,,,,,,,,,,,,,,,,,,,,,,,,,,,,,,,,,,,,,,,,,,,,,,,,,,,,,,,,,,,,,,,,p_7,001,2024-05-08_13h59.42.954,speech_rate,2023.2.3,None,2024-05-08 13h59.57.937066 -0700,
,Someday_13_condition-3x.wav,Someday__Someday__Maybe__Unabridged___File_009_of_116_1.wav,After hanging up with my dad I think I hear Jane downstairs home from the set which means I might actually get something to eat before I get on the train I made it onto the actual wait list I call while coming down the stairs To see the famous nutritionist person Yes Also do I have a problem with cigarettes You seem to be doing just fine with them Jane says dumping a large brown bag onto the top of our never used oven with a thud She's wearing a trench coat we found at the Goodwill in Prospect Heights and her signature giant red vintage sunglasses,What is Jane's signature accessorize?,A. Red vintage sunglasses,B. A red trenchcoat,C. Red platform boots,D. A brown belt,A. Red vintage sunglasses,yes,11.38875,,,,,,,,,,,,,0,1,1,1,,,,,,,,,,,,,,,,,,,,,,,,,,,,,,,,,,,,,,,,,,,,,,,,,,,,,520.6227197500002,529.5038717080006,1,8.870635166000284,8.870637541000178,0,,,0,,,0,,,,,,,,,,,,,,,,,,,,,,,,,,,,,,p_7,001,2024-05-08_13h59.42.954,speech_rate,2023.2.3,None,2024-05-08 13h59.57.937066 -0700,
,Someday_32_condition-5x.wav,Someday__Someday__Maybe__Unabridged___File_018_of_116_0.wav,Navigating the crowd on the sidewalk is a challenge I like I'm running without touching anyone else on the street I'm a character in a human video game keeping my bubble of space from being invaded eyeing an open slot on the sidewalk speeding up to grab it before someone else does slowing down until I see another space working together with the strangers on the street as though we're all performing an elaborate dance perfectly choreographed for thousands of people I'm happy A guy I like got my number,How does the narrator feel while navigating the crowded sidewalk?,A. Anxious,B. Happy,C. Frustrated,D. Confused,B. Happy,yes,5.814,,,,,,,,,,,,,0,2,2,2,0,0,0,0,0,0,0,0,544.2694131670005,,,,,,,,,,,,,,,532.3059129580006,532.321535291667,532.3176754579999,538.1281925000003,538.1398908749998,538.1511667920004,538.4111932920005,538.4111932920005,541.1377452500001,543.3777605000005,2.8083333333333336,4.519012458999896,1,[2.253187207999872],[2.2531893750001473],,,,,,,544.2586430830006,544.2694131670005,544.2694131670005,552.1907649579998,"street, happy",1,[7.928865708000558],[7.928868791000241],,,,,,,,,,,,,,,,,,,,,,529.5043415420005,529.5103303330006,529.5103303330006,529.5103303330006,532.3056751250006,1,[2.8000278340005025],[2.8000304170000163],543.3783136669999,543.3875733330005,544.2578526670004,1,[0.8775429580000491],[0.8775456250004936],,,,,,,p_7,001,2024-05-08_13h59.42.954,speech_rate,2023.2.3,None,2024-05-08 13h59.57.937066 -0700,
,Someday_32_condition-5x.wav,Someday__Someday__Maybe__Unabridged___File_018_of_116_0.wav,Navigating the crowd on the sidewalk is a challenge I like I'm running without touching anyone else on the street I'm a character in a human video game keeping my bubble of space from being invaded eyeing an open slot on the sidewalk speeding up to grab it before someone else does slowing down until I see another space working together with the strangers on the street as though we're all performing an elaborate dance perfectly choreographed for thousands of people I'm happy A guy I like got my number,How does the narrator feel while navigating the crowded sidewalk?,A. Anxious,B. Happy,C. Frustrated,D. Confused,B. Happy,yes,5.814,,,,,,,,,,,,,0,2,2,2,0,0,0,0,,,,,,,,,,,,,,,,,,,,,,,,,,,,,,,,,,,,,,,,,,,,,,,,,,,,,,,,,,,,,,,,,,,,,,,,,,,,,,,,,,,,,,,,,,p_7,001,2024-05-08_13h59.42.954,speech_rate,2023.2.3,None,2024-05-08 13h59.57.937066 -0700,
,Someday_32_condition-5x.wav,Someday__Someday__Maybe__Unabridged___File_018_of_116_0.wav,Navigating the crowd on the sidewalk is a challenge I like I'm running without touching anyone else on the street I'm a character in a human video game keeping my bubble of space from being invaded eyeing an open slot on the sidewalk speeding up to grab it before someone else does slowing down until I see another space working together with the strangers on the street as though we're all performing an elaborate dance perfectly choreographed for thousands of people I'm happy A guy I like got my number,How does the narrator feel while navigating the crowded sidewalk?,A. Anxious,B. Happy,C. Frustrated,D. Confused,B. Happy,yes,5.814,,,,,,,,,,,,,0,2,2,2,,,,,,,,,,,,,,,,,,,,,,,,,,,,,,,,,,,,,,,,,,,,,,,,,,,,,552.1912337499998,554.6491628330004,0,,,1,2.448406084000453,2.448409499999798,0,,,0,,,,,,,,,,,,,,,,,,,,,,,,,,,,,,p_7,001,2024-05-08_13h59.42.954,speech_rate,2023.2.3,None,2024-05-08 13h59.57.937066 -0700,
,Someday_91_condition-2x.wav,Someday__Someday__Maybe__Unabridged___File_040_of_116_0.wav,Please go ahead and begin your monologue whenever you're ready We can chat afterwards Take your time His words are encouraging but his face is neutral at best And when there are two people in a room and one of them is there purely to see the other person do something the notion that that person could actually take their time seems ridiculous But I try I try to take a deep breath but the air gets sort of stuck and doesn't go all the way down to my lungs I need a minute to calm down but I can't possibly take it,What is the narrator's reaction to the suggestion to take her time?,A. She feels comforted,B. She finds it ridiculous,C. She rejects the offer,D. She chats with the agent first,B. She finds it ridiculous,yes,14.29496875,,,,,,,,,,,,,0,3,3,3,0,0,0,0,0,0,0,0,578.6369742920006,,,,,,,,,,,,,,,559.291688542,559.3072784996668,559.3117190829998,573.607581667,573.6086784170002,573.6199110420002,573.837573625,573.837573625,576.8063630000006,577.5409114579998,10,3.1586807080002473,1,[0.7473222500002521],[0.7473244590000832],,,,,,,578.6259810420006,578.6369742920006,578.6369742920006,608.0106936669999,somoene is trying to explain an event but is clouded completely by emotion . they cant calm down ,1,[29.38168887499978],[29.381692582999676],,,,,,,,,,,,,,,,,,,,,,554.6497005420006,554.655063708,554.655063708,554.655063708,559.2914769580002,1,[4.641362290999496],[4.641365082999982],577.5414224169999,577.5461510000005,578.6251667080005,1,[1.083346375000474],[1.08334908300003],,,,,,,p_7,001,2024-05-08_13h59.42.954,speech_rate,2023.2.3,None,2024-05-08 13h59.57.937066 -0700,
,Someday_91_condition-2x.wav,Someday__Someday__Maybe__Unabridged___File_040_of_116_0.wav,Please go ahead and begin your monologue whenever you're ready We can chat afterwards Take your time His words are encouraging but his face is neutral at best And when there are two people in a room and one of them is there purely to see the other person do something the notion that that person could actually take their time seems ridiculous But I try I try to take a deep breath but the air gets sort of stuck and doesn't go all the way down to my lungs I need a minute to calm down but I can't possibly take it,What is the narrator's reaction to the suggestion to take her time?,A. She feels comforted,B. She finds it ridiculous,C. She rejects the offer,D. She chats with the agent first,B. She finds it ridiculous,yes,14.29496875,,,,,,,,,,,,,0,3,3,3,0,0,0,0,,,,,,,,,,,,,,,,,,,,,,,,,,,,,,,,,,,,,,,,,,,,,,,,,,,,,,,,,,,,,,,,,,,,,,,,,,,,,,,,,,,,,,,,,,p_7,001,2024-05-08_13h59.42.954,speech_rate,2023.2.3,None,2024-05-08 13h59.57.937066 -0700,
,Someday_91_condition-2x.wav,Someday__Someday__Maybe__Unabridged___File_040_of_116_0.wav,Please go ahead and begin your monologue whenever you're ready We can chat afterwards Take your time His words are encouraging but his face is neutral at best And when there are two people in a room and one of them is there purely to see the other person do something the notion that that person could actually take their time seems ridiculous But I try I try to take a deep breath but the air gets sort of stuck and doesn't go all the way down to my lungs I need a minute to calm down but I can't possibly take it,What is the narrator's reaction to the suggestion to take her time?,A. She feels comforted,B. She finds it ridiculous,C. She rejects the offer,D. She chats with the agent first,B. She finds it ridiculous,yes,14.29496875,,,,,,,,,,,,,0,3,3,3,,,,,,,,,,,,,,,,,,,,,,,,,,,,,,,,,,,,,,,,,,,,,,,,,,,,,608.0111502500004,621.0677414170004,0,,,1,13.045289499999853,13.045291958000234,0,,,0,,,,,,,,,,,,,,,,,,,,,,,,,,,,,,p_7,001,2024-05-08_13h59.42.954,speech_rate,2023.2.3,None,2024-05-08 13h59.57.937066 -0700,
,Someday_12_condition-3x.wav,Someday__Someday__Maybe__Unabridged___File_008_of_116_4.wav,Of course the wedding's not until June but if you wanna stay at the Sands by the shore she said to book early Okay thanks Franny I'm worried about you Why Well from my initial calculations this new telephone identification system could save you upwards of 20 to 25 seconds per day I'm concerned about how you'll adjust to all the new free time Har har Also one of my students says there's a show called Friends Apparently it's a popular one Maybe you should try to apply for that,What does the narrator's father joke about regarding caller ID?,A. The invention of the telephone,B. The inconvenience of caller ID,C. The potential time saved with caller ID,D. The popularity of caller ID,C. The potential time saved with caller ID,yes,11.145,,,,,,,,,,,,,0,4,4,4,0,0,0,0,0,0,0,0,639.072997792,,,,,,,,,,,,,,,623.1517142920002,623.1676984996668,623.1701452500001,634.3112271669997,634.3157120420001,634.3269192500002,634.592031792,634.592031792,636.810079375,638.04439,7.958333333333333,2.44278900000063,1,[1.2593670830001429],[1.2593692910004393],,,,,,,639.062170917,639.072997792,639.072997792,669.0625170829999,"wedding booking early, a  show called friends which she should apply to",0,,,,,,,,,,,,,,,,,,,,,,,,621.0682067080006,621.0748842920002,621.0748842920002,621.0748842920002,623.1515179580001,1,[2.0816108330000134],[2.0816134579999925],638.0449509580003,638.0496754579999,639.061539417,1,[1.0161099999995713],[1.0161124579999523],,,,,,,p_7,001,2024-05-08_13h59.42.954,speech_rate,2023.2.3,None,2024-05-08 13h59.57.937066 -0700,
,Someday_12_condition-3x.wav,Someday__Someday__Maybe__Unabridged___File_008_of_116_4.wav,Of course the wedding's not until June but if you wanna stay at the Sands by the shore she said to book early Okay thanks Franny I'm worried about you Why Well from my initial calculations this new telephone identification system could save you upwards of 20 to 25 seconds per day I'm concerned about how you'll adjust to all the new free time Har har Also one of my students says there's a show called Friends Apparently it's a popular one Maybe you should try to apply for that,What does the narrator's father joke about regarding caller ID?,A. The invention of the telephone,B. The inconvenience of caller ID,C. The potential time saved with caller ID,D. The popularity of caller ID,C. The potential time saved with caller ID,yes,11.145,,,,,,,,,,,,,0,4,4,4,0,0,0,0,,,,,,,,,,,,,,,,,,,,,,,,,,,,,,,,,,,,,,,,,,,,,,,,,,,,,,,,,,,,,,,,,,,,,,,,,,,,,,,,,,,,,,,,,,p_7,001,2024-05-08_13h59.42.954,speech_rate,2023.2.3,None,2024-05-08 13h59.57.937066 -0700,
,Someday_12_condition-3x.wav,Someday__Someday__Maybe__Unabridged___File_008_of_116_4.wav,Of course the wedding's not until June but if you wanna stay at the Sands by the shore she said to book early Okay thanks Franny I'm worried about you Why Well from my initial calculations this new telephone identification system could save you upwards of 20 to 25 seconds per day I'm concerned about how you'll adjust to all the new free time Har har Also one of my students says there's a show called Friends Apparently it's a popular one Maybe you should try to apply for that,What does the narrator's father joke about regarding caller ID?,A. The invention of the telephone,B. The inconvenience of caller ID,C. The potential time saved with caller ID,D. The popularity of caller ID,C. The potential time saved with caller ID,yes,11.145,,,,,,,,,,,,,0,4,4,4,,,,,,,,,,,,,,,,,,,,,,,,,,,,,,,,,,,,,,,,,,,,,,,,,,,,,669.0628710000001,681.2496230830002,1,12.175857958000051,12.175860499999544,0,,,0,,,0,,,,,,,,,,,,,,,,,,,,,,,,,,,,,,p_7,001,2024-05-08_13h59.42.954,speech_rate,2023.2.3,None,2024-05-08 13h59.57.937066 -0700,
,Someday_82_condition.wav,Someday__Someday__Maybe__Unabridged___File_037_of_116_3.wav,The end Huh I say baffled The end is supposed to show that he's come to terms with who he is It's supposed to show he's been healed Huh I say again I know Fellini can be abstract Dan says eyes gleaming Watch it with me from the beginning sometime I will I smile back at him noticing for the first time the flecks of green in his brown eyes The room seems too dark and quiet suddenly,What color are Dan's eyes,A. Blue with green flecks,B. Deep brown,C. Brown with green flecks,D. Dark green with brown flecks,C. Brown with green flecks,yes,31.15996875,,,,,,,,,,,,,0,5,5,5,0,0,0,0,0,0,0,0,729.4000752080001,,,,,,,,,,,,,,,683.8067285000006,683.8530033330005,683.8478203330005,715.0050909170004,715.0170887499999,715.0386535830003,715.305372625,715.305372625,725.1092697080003,728.3671721669998,6.799999999999999,11.57820187499965,1,[3.266882875000192],[3.266885084000023],,,,,,,729.3880109580005,729.4000752080001,729.4000752080001,759.383955583,he has flecks of green in his brown eyes. mulling over somehting,0,,,,,,,,,,,,,,,,,,,,,,,,681.2502370419998,681.263411375,681.263411375,681.263411375,683.8064419170005,1,[2.5534108749998268],[2.5534199580006316],728.367739542,728.3726026250006,729.3872096670002,1,[1.0186411249997036],[1.0186548339997898],759.4025677919999,759.4025677919999,,,,,p_7,001,2024-05-08_13h59.42.954,speech_rate,2023.2.3,None,2024-05-08 13h59.57.937066 -0700,
,Someday_82_condition.wav,Someday__Someday__Maybe__Unabridged___File_037_of_116_3.wav,The end Huh I say baffled The end is supposed to show that he's come to terms with who he is It's supposed to show he's been healed Huh I say again I know Fellini can be abstract Dan says eyes gleaming Watch it with me from the beginning sometime I will I smile back at him noticing for the first time the flecks of green in his brown eyes The room seems too dark and quiet suddenly,What color are Dan's eyes,A. Blue with green flecks,B. Deep brown,C. Brown with green flecks,D. Dark green with brown flecks,C. Brown with green flecks,yes,31.15996875,,,,,,,,,,,,,0,5,5,5,0,0,0,0,,,,,,,,,,,,,,,,,,,,,,,,,,,,,,,,,,,,,,,,,,,,,,,,,,,,,,,,,,,,,,,,,,,,,,,,,,,,,,,,,,,,,,,,,,p_7,001,2024-05-08_13h59.42.954,speech_rate,2023.2.3,None,2024-05-08 13h59.57.937066 -0700,
,Someday_82_condition.wav,Someday__Someday__Maybe__Unabridged___File_037_of_116_3.wav,The end Huh I say baffled The end is supposed to show that he's come to terms with who he is It's supposed to show he's been healed Huh I say again I know Fellini can be abstract Dan says eyes gleaming Watch it with me from the beginning sometime I will I smile back at him noticing for the first time the flecks of green in his brown eyes The room seems too dark and quiet suddenly,What color are Dan's eyes,A. Blue with green flecks,B. Deep brown,C. Brown with green flecks,D. Dark green with brown flecks,C. Brown with green flecks,yes,31.15996875,,,,,,,,,,,,,0,5,5,5,,,,,,,,,,,,,,,,,,,,,,,,,,,,,,,,,,,,,,,,,,,,,,,,,,,,,759.3843812920004,766.6261264579998,0,,,0,,,1,7.233141374999832,7.23314395899979,0,,,,,,,,,,,,,,,,,,,,,,,,,,,,,,p_7,001,2024-05-08_13h59.42.954,speech_rate,2023.2.3,None,2024-05-08 13h59.57.937066 -0700,
,Someday_9_condition-4x.wav,Someday__Someday__Maybe__Unabridged___File_008_of_116_1.wav,For the Stevie Nicks fan club Jane seriously say something helpful She tilted her head studying me carefully Honestly Franny all I can think of to say is you look like you work at a really great bakery in Maine I have class tonight after my audition so today I go for young mom meets acting class neutral black sweater black tights short black wool skirt and my Doc Martin Oxford lace up shoes Not super mom ish but practical for walking,What does Jane say the narrator looks like?,A. Like she works at a bakery,B. Like she is a movie star,C. Like she is a student at Oxford,D. Like she is a mom,A. Like she works at a bakery,yes,7.5175,,,,,,,,,,,,,0,6,6,6,0,0,0,0,0,0,0,0,783.4213925829999,,,,,,,,,,,,,,,770.8593135830006,770.8747795836664,770.8728866669999,778.3863877080003,778.405461542,778.4163373330002,778.6870872919999,778.6870872919999,781.6684342919998,782.3473007500006,2.2333333333333334,3.2241237920006824,1,[0.6919402499997886],[0.691942583999662],,,,,,,783.4098606670004,783.4213925829999,783.4213925829999,792.5543840830005,"neutral,not super ",1,[9.141157917000783],[9.141161167000064],,,,,,,,,,,,,,,,,,,,,,766.6265699579999,766.6332874999998,766.6332874999998,766.6332874999998,770.8590485000004,1,[4.230768458000057],[4.230774583000311],782.3478003750006,782.3684740830004,783.4091686250003,1,[1.0609479579998151],[1.0609505000002173],,,,,,,p_7,001,2024-05-08_13h59.42.954,speech_rate,2023.2.3,None,2024-05-08 13h59.57.937066 -0700,
,Someday_9_condition-4x.wav,Someday__Someday__Maybe__Unabridged___File_008_of_116_1.wav,For the Stevie Nicks fan club Jane seriously say something helpful She tilted her head studying me carefully Honestly Franny all I can think of to say is you look like you work at a really great bakery in Maine I have class tonight after my audition so today I go for young mom meets acting class neutral black sweater black tights short black wool skirt and my Doc Martin Oxford lace up shoes Not super mom ish but practical for walking,What does Jane say the narrator looks like?,A. Like she works at a bakery,B. Like she is a movie star,C. Like she is a student at Oxford,D. Like she is a mom,A. Like she works at a bakery,yes,7.5175,,,,,,,,,,,,,0,6,6,6,0,0,0,0,,,,,,,,,,,,,,,,,,,,,,,,,,,,,,,,,,,,,,,,,,,,,,,,,,,,,,,,,,,,,,,,,,,,,,,,,,,,,,,,,,,,,,,,,,p_7,001,2024-05-08_13h59.42.954,speech_rate,2023.2.3,None,2024-05-08 13h59.57.937066 -0700,
,Someday_9_condition-4x.wav,Someday__Someday__Maybe__Unabridged___File_008_of_116_1.wav,For the Stevie Nicks fan club Jane seriously say something helpful She tilted her head studying me carefully Honestly Franny all I can think of to say is you look like you work at a really great bakery in Maine I have class tonight after my audition so today I go for young mom meets acting class neutral black sweater black tights short black wool skirt and my Doc Martin Oxford lace up shoes Not super mom ish but practical for walking,What does Jane say the narrator looks like?,A. Like she works at a bakery,B. Like she is a movie star,C. Like she is a student at Oxford,D. Like she is a mom,A. Like she works at a bakery,yes,7.5175,,,,,,,,,,,,,0,6,6,6,,,,,,,,,,,,,,,,,,,,,,,,,,,,,,,,,,,,,,,,,,,,,,,,,,,,,792.55489975,800.471623417,1,7.905727625000509,7.905730291000509,0,,,0,,,0,,,,,,,,,,,,,,,,,,,,,,,,,,,,,,p_7,001,2024-05-08_13h59.42.954,speech_rate,2023.2.3,None,2024-05-08 13h59.57.937066 -0700,
,Someday_79_condition-3x.wav,Someday__Someday__Maybe__Unabridged___File_036_of_116_1.wav,But something is holding me back It would be so easy to say yes and leave this room with an agent almost too easy I Look around the room and the walls of old scripts and playbills that seemed warm and friendly when I first came in Now look cluttered and shabby the leather on the arms of this giant lumpy chair is worn thin The stuffing is peeking through one of the seams and the sunlight streaming through the window is cloudy with dust I stammer a bit,What is one of the factors that is preventing the narrator from immediately accepting the agent's offer?,A. The agent's appearance,B. The condition of the room,C. The agent's attitude,D. The lack of other actors,B. The condition of the room,yes,10.66875,,,,,,,,,,,,,0,7,7,7,0,0,0,0,0,0,0,0,818.7880968750005,,,,,,,,,,,,,,,802.8937379580002,802.909290124667,802.909267125,813.577367375,813.5785382499998,813.5894157920002,813.811406625,813.811406625,817.0313470000001,817.7549045420001,8.958333333333334,3.41386862499985,1,[0.7325596659993607],[0.7325643329995728],,,,,,,818.77619925,818.7880968750005,818.7880968750005,848.7639246670005,"describing a room, cloudy with dust, leather crusty, old ",1,[29.984430582999266],[29.9844337909999],,,,,,,,,,,,,,,,,,,,,,800.4722058750003,800.4801511670003,800.4801511670003,800.4801511670003,802.8935337500006,1,[2.4191676660002486],[2.4191705410003124],817.7554664580002,817.7599610420002,818.7753457919998,1,[1.0191261250001844],[1.0191316660002485],,,,,,,p_7,001,2024-05-08_13h59.42.954,speech_rate,2023.2.3,None,2024-05-08 13h59.57.937066 -0700,
,Someday_79_condition-3x.wav,Someday__Someday__Maybe__Unabridged___File_036_of_116_1.wav,But something is holding me back It would be so easy to say yes and leave this room with an agent almost too easy I Look around the room and the walls of old scripts and playbills that seemed warm and friendly when I first came in Now look cluttered and shabby the leather on the arms of this giant lumpy chair is worn thin The stuffing is peeking through one of the seams and the sunlight streaming through the window is cloudy with dust I stammer a bit,What is one of the factors that is preventing the narrator from immediately accepting the agent's offer?,A. The agent's appearance,B. The condition of the room,C. The agent's attitude,D. The lack of other actors,B. The condition of the room,yes,10.66875,,,,,,,,,,,,,0,7,7,7,0,0,0,0,,,,,,,,,,,,,,,,,,,,,,,,,,,,,,,,,,,,,,,,,,,,,,,,,,,,,,,,,,,,,,,,,,,,,,,,,,,,,,,,,,,,,,,,,,p_7,001,2024-05-08_13h59.42.954,speech_rate,2023.2.3,None,2024-05-08 13h59.57.937066 -0700,
,Someday_79_condition-3x.wav,Someday__Someday__Maybe__Unabridged___File_036_of_116_1.wav,But something is holding me back It would be so easy to say yes and leave this room with an agent almost too easy I Look around the room and the walls of old scripts and playbills that seemed warm and friendly when I first came in Now look cluttered and shabby the leather on the arms of this giant lumpy chair is worn thin The stuffing is peeking through one of the seams and the sunlight streaming through the window is cloudy with dust I stammer a bit,What is one of the factors that is preventing the narrator from immediately accepting the agent's offer?,A. The agent's appearance,B. The condition of the room,C. The agent's attitude,D. The lack of other actors,B. The condition of the room,yes,10.66875,,,,,,,,,,,,,0,7,7,7,,,,,,,,,,,,,,,,,,,,,,,,,,,,,,,,,,,,,,,,,,,,,,,,,,,,,848.7644384579999,855.1237692920004,0,,,1,6.3485407920006764,6.3485433330006344,0,,,0,,,,,,,,,,,,,,,,,,,,,,,,,,,,,,p_7,001,2024-05-08_13h59.42.954,speech_rate,2023.2.3,None,2024-05-08 13h59.57.937066 -0700,
,Someday_107_condition-2x.wav,Someday__Someday__Maybe__Unabridged___File_048_of_116_0.wav,One more thing from last night Yeah Apparently We're not supposed to wash our jeans anymore the wardrobe lady told me We are only supposed to dry clean them What That's insane Yep We're supposed to buy jeans really tight as tight as we can squeeze into so all the fat gets compressed into as little space as possible Then we want the fat compression level to stay that way for as long as it can right Well washing jeans makes them softer and baggier and lessens the fat compression quotient,Why are people advised not to wash their jeans anymore?,A. To save water and be more environmentally friendly,B. To maintain the tight fit and fat compression,C. To reduce laundry expenses,D. To prevent jeans from fading,B. To maintain the tight fit and fat compression,no,14.5,,,,,,,,,,,,,0,8,8,8,,,,,,,,,855.1292879170005,,,,,,,,,,,,,,,858.0141924170002,858.0297026246665,858.0344755000006,872.5301147079999,872.5341873329999,872.5451456669998,872.8158924580002,872.8158924580002,875.1848480420003,875.9476476250002,10,2.6116961249999804,1,[0.7721786249994693],[0.7721809169997869],,,,,,,,,,,,,,,875.9481175830006,881.3412599170006,0,,,1,5.383883458000128,5.383886041000551,0,,,0,,,,,,,,,,855.1242627080001,855.1292879170005,855.1292879170005,855.1292879170005,858.0139456249999,1,[2.889245458000005],[2.889248082999984],,,,,,,,,,,,,p_7,001,2024-05-08_13h59.42.954,speech_rate,2023.2.3,None,2024-05-08 13h59.57.937066 -0700,
,Someday_102_condition.wav,Someday__Someday__Maybe__Unabridged___File_045_of_116_0.wav,Well it's just mainly a gag you know says the man in glasses a gag I repeat Yes a running gag like how she laughs on the nanny But we don't want it to sound anything like her laugh the man in the back of the room says emphatically Yes of course it's a laugh That's all her own just a girl who laughs funny for no particular reason the man with glasses says Okay Thanks and sorry but what do I do do,What is the character's laugh intended to be in the audition scene?,A. A running gag,B. A natural laugh,C. A villain's laugh,D. A serious and dramatic laugh,A. A running gag,yes,28.03,,,,,,,,,,,,,0,9,9,9,0,0,0,0,0,0,0,0,920.0565982500002,,,,,,,,,,,,,,,884.6464765000001,884.6759027503335,884.6773634170004,912.7105985830003,912.7121112499999,912.7342414579998,912.9471635420005,912.9471635420005,917.4988356250005,919.3722027080003,9.7,5.91698924999946,1,[1.882436666999638],[1.8824390829995536],,,,,,,920.04560425,920.0565982500002,920.0565982500002,942.5206095829999,"talking about how a girl laughs, she laughs funny, like the girl ",1,[22.471770582999852],[22.47178291599994],,,,,,,,,,,,,,,,,,,,,,881.3417803749999,881.3482865420001,881.3482865420001,881.3482865420001,884.6461975000002,1,[3.302293834000011],[3.302298999999948],919.3727695420002,919.3781416669999,920.0448027920002,1,[0.6715756249996048],[0.6715783330000704],,,,,,,p_7,001,2024-05-08_13h59.42.954,speech_rate,2023.2.3,None,2024-05-08 13h59.57.937066 -0700,
,Someday_102_condition.wav,Someday__Someday__Maybe__Unabridged___File_045_of_116_0.wav,Well it's just mainly a gag you know says the man in glasses a gag I repeat Yes a running gag like how she laughs on the nanny But we don't want it to sound anything like her laugh the man in the back of the room says emphatically Yes of course it's a laugh That's all her own just a girl who laughs funny for no particular reason the man with glasses says Okay Thanks and sorry but what do I do do,What is the character's laugh intended to be in the audition scene?,A. A running gag,B. A natural laugh,C. A villain's laugh,D. A serious and dramatic laugh,A. A running gag,yes,28.03,,,,,,,,,,,,,0,9,9,9,0,0,0,0,,,,,,,,,,,,,,,,,,,,,,,,,,,,,,,,,,,,,,,,,,,,,,,,,,,,,,,,,,,,,,,,,,,,,,,,,,,,,,,,,,,,,,,,,,p_7,001,2024-05-08_13h59.42.954,speech_rate,2023.2.3,None,2024-05-08 13h59.57.937066 -0700,
,Someday_102_condition.wav,Someday__Someday__Maybe__Unabridged___File_045_of_116_0.wav,Well it's just mainly a gag you know says the man in glasses a gag I repeat Yes a running gag like how she laughs on the nanny But we don't want it to sound anything like her laugh the man in the back of the room says emphatically Yes of course it's a laugh That's all her own just a girl who laughs funny for no particular reason the man with glasses says Okay Thanks and sorry but what do I do do,What is the character's laugh intended to be in the audition scene?,A. A running gag,B. A natural laugh,C. A villain's laugh,D. A serious and dramatic laugh,A. A running gag,yes,28.03,,,,,,,,,,,,,0,9,9,9,,,,,,,,,,,,,,,,,,,,,,,,,,,,,,,,,,,,,,,,,,,,,,,,,,,,,942.5211226669999,950.0528922080002,1,7.5218679169993266,7.5218737089999195,0,,,0,,,0,,,,,,,,,,,,,,,,,,,,,,,,,,,,,,p_7,001,2024-05-08_13h59.42.954,speech_rate,2023.2.3,None,2024-05-08 13h59.57.937066 -0700,
,Someday_93_condition-5x.wav,Someday__Someday__Maybe__Unabridged___File_041_of_116_0.wav,It doesn't even matter whether it's a real person or an actor playing a character and if the person or character is interesting in some way I put myself in his or her shoes imagining what it would feel like what I would say or do if I were that person I don't remember deciding to do this as a career I want to tell him There wasn't any one day where it came to me My mother died and I started pretending it didn't happen to me started imagining what it would be like to have someone else's life story and pretending became a relief,What coping mechanism did the narrator develop after their mother's death?,A. The narrator chose to openly discuss her career decisions,B. The narrator decided to become an actor one specific day,C. The narrator began to use imagination and pretending as a form of escape,D. The narrator focused on the realism of the characters portrayed by actors,C. The narrator began to use imagination and pretending as a form of escape,yes,5.738,,,,,,,,,,,,,0,10,10,10,0,0,0,0,0,0,0,0,962.9960450830004,,,,,,,,,,,,,,,953.2025748329997,953.2181158336673,953.2143611250003,958.9469373749998,958.9649256250004,958.9761669999998,959.2326800000001,959.2326800000001,961.6119956250004,962.2034355830001,1.7249999999999999,2.607697957999335,1,[0.6046161659996869],[0.6046185409995815],,,,,,,962.9686335420001,962.9960450830004,962.9960450830004,969.2962457499998,"hit me , shoes",1,[6.324240167000426],[6.324243084000045],,,,,,,,,,,,,,,,,,,,,,950.0533840830003,950.0605105000004,950.0605105000004,950.0605105000004,953.2023625000002,1,[3.1470612080001956],[3.147063958000217],962.203972458,962.2119483750002,962.9680223750001,1,[0.7636153330004163],[0.7636177499998666],,,,,,,p_7,001,2024-05-08_13h59.42.954,speech_rate,2023.2.3,None,2024-05-08 13h59.57.937066 -0700,
,Someday_93_condition-5x.wav,Someday__Someday__Maybe__Unabridged___File_041_of_116_0.wav,It doesn't even matter whether it's a real person or an actor playing a character and if the person or character is interesting in some way I put myself in his or her shoes imagining what it would feel like what I would say or do if I were that person I don't remember deciding to do this as a career I want to tell him There wasn't any one day where it came to me My mother died and I started pretending it didn't happen to me started imagining what it would be like to have someone else's life story and pretending became a relief,What coping mechanism did the narrator develop after their mother's death?,A. The narrator chose to openly discuss her career decisions,B. The narrator decided to become an actor one specific day,C. The narrator began to use imagination and pretending as a form of escape,D. The narrator focused on the realism of the characters portrayed by actors,C. The narrator began to use imagination and pretending as a form of escape,yes,5.738,,,,,,,,,,,,,0,10,10,10,0,0,0,0,,,,,,,,,,,,,,,,,,,,,,,,,,,,,,,,,,,,,,,,,,,,,,,,,,,,,,,,,,,,,,,,,,,,,,,,,,,,,,,,,,,,,,,,,,p_7,001,2024-05-08_13h59.42.954,speech_rate,2023.2.3,None,2024-05-08 13h59.57.937066 -0700,
,Someday_93_condition-5x.wav,Someday__Someday__Maybe__Unabridged___File_041_of_116_0.wav,It doesn't even matter whether it's a real person or an actor playing a character and if the person or character is interesting in some way I put myself in his or her shoes imagining what it would feel like what I would say or do if I were that person I don't remember deciding to do this as a career I want to tell him There wasn't any one day where it came to me My mother died and I started pretending it didn't happen to me started imagining what it would be like to have someone else's life story and pretending became a relief,What coping mechanism did the narrator develop after their mother's death?,A. The narrator chose to openly discuss her career decisions,B. The narrator decided to become an actor one specific day,C. The narrator began to use imagination and pretending as a form of escape,D. The narrator focused on the realism of the characters portrayed by actors,C. The narrator began to use imagination and pretending as a form of escape,yes,5.738,,,,,,,,,,,,,0,10,10,10,,,,,,,,,,,,,,,,,,,,,,,,,,,,,,,,,,,,,,,,,,,,,,,,,,,,,969.2967440000002,986.6078462920004,0,,,0,,,1,17.297819958999753,17.297822833999817,0,,,,,,,,,,,,,,,,,,,,,,,,,,,,,,p_7,001,2024-05-08_13h59.42.954,speech_rate,2023.2.3,None,2024-05-08 13h59.57.937066 -0700,
,Someday_17_condition-5x.wav,Someday__Someday__Maybe__Unabridged___File_011_of_116_0.wav,Are you sure you won't come back with me now He asked last time as I waited with him at his gate at the airport I just not yet Okay he said and then with a wink call me when you change your mind Sometimes when the tips are bad and my feet ache I wonder why I'm putting off the inevitable I wonder why I don't just pick up the phone and move to Chicago rather than continuing to attempt something that has a less than 5 success rate,What does the narrator contemplate while dealing with the hardships of her current situation?,A. Whether to continue waiting at the airport,B. Whether to ask for better tips to ease the pain in her feet,C. Why she is delaying a significant change in her life,D. Why she isn't more successful in her current endeavors,C. Why she is delaying a significant change in her life,yes,5.746,,,,,,,,,,,,,0,11,11,11,0,0,0,0,0,0,0,0,998.713397083,,,,,,,,,,,,,,,988.130215958,988.1461227086668,988.1420827500006,993.8798912080001,993.8998584580004,993.9102917500004,994.1250707500003,994.1250707500003,997.3526325829998,998.0540865829998,2.75,3.41850174999945,1,[0.7104264159997911],[0.7104286250005316],,,,,,,998.7018999580005,998.713397083,998.713397083,1006.9338738750002,he had a wife at home ,1,[8.22862245899978],[8.228625458999886],,,,,,,,,,,,,,,,,,,,,,986.6084250829999,986.6160780830005,986.6160780830005,986.6160780830005,988.1300137919998,1,[1.5194542499993986],[1.519456915999399],998.0546152080005,998.0638410000001,998.7011589580006,1,[0.6460634999993999],[0.6460667499995907],,,,,,,p_7,001,2024-05-08_13h59.42.954,speech_rate,2023.2.3,None,2024-05-08 13h59.57.937066 -0700,
,Someday_17_condition-5x.wav,Someday__Someday__Maybe__Unabridged___File_011_of_116_0.wav,Are you sure you won't come back with me now He asked last time as I waited with him at his gate at the airport I just not yet Okay he said and then with a wink call me when you change your mind Sometimes when the tips are bad and my feet ache I wonder why I'm putting off the inevitable I wonder why I don't just pick up the phone and move to Chicago rather than continuing to attempt something that has a less than 5 success rate,What does the narrator contemplate while dealing with the hardships of her current situation?,A. Whether to continue waiting at the airport,B. Whether to ask for better tips to ease the pain in her feet,C. Why she is delaying a significant change in her life,D. Why she isn't more successful in her current endeavors,C. Why she is delaying a significant change in her life,yes,5.746,,,,,,,,,,,,,0,11,11,11,0,0,0,0,,,,,,,,,,,,,,,,,,,,,,,,,,,,,,,,,,,,,,,,,,,,,,,,,,,,,,,,,,,,,,,,,,,,,,,,,,,,,,,,,,,,,,,,,,p_7,001,2024-05-08_13h59.42.954,speech_rate,2023.2.3,None,2024-05-08 13h59.57.937066 -0700,
,Someday_17_condition-5x.wav,Someday__Someday__Maybe__Unabridged___File_011_of_116_0.wav,Are you sure you won't come back with me now He asked last time as I waited with him at his gate at the airport I just not yet Okay he said and then with a wink call me when you change your mind Sometimes when the tips are bad and my feet ache I wonder why I'm putting off the inevitable I wonder why I don't just pick up the phone and move to Chicago rather than continuing to attempt something that has a less than 5 success rate,What does the narrator contemplate while dealing with the hardships of her current situation?,A. Whether to continue waiting at the airport,B. Whether to ask for better tips to ease the pain in her feet,C. Why she is delaying a significant change in her life,D. Why she isn't more successful in her current endeavors,C. Why she is delaying a significant change in her life,yes,5.746,,,,,,,,,,,,,0,11,11,11,,,,,,,,,,,,,,,,,,,,,,,,,,,,,,,,,,,,,,,,,,,,,,,,,,,,,1006.9343610420001,1016.4172970830004,0,,,0,,,1,9.470266374999483,9.470269292000012,0,,,,,,,,,,,,,,,,,,,,,,,,,,,,,,p_7,001,2024-05-08_13h59.42.954,speech_rate,2023.2.3,None,2024-05-08 13h59.57.937066 -0700,
,Someday_72_condition-3x.wav,Someday__Someday__Maybe__Unabridged___File_034_of_116_0.wav,Okay Yeah thanks I Say the exact same lines over and over again until they lose all meaning Someone with a stopwatch times me and for about four hours I'm either speeding up or slowing down by increments of one second to at most Takes that are 28 seconds strangely feel longer than the ones that are 26 Smile more smile less tilt my head talk to the camera like it's my best friend raise inflection on the name of the product But don't sell it not too much not too little have fun with it,What does the narrator do repeatedly?,A. Speak the same lines,B. Adjust the camera,C. Change outfits,D. Time herself with a stopwatch,A. Speak the same lines,yes,10.90125,,,,,,,,,,,,,0,12,12,12,0,0,0,0,0,0,0,0,1035.7192377500005,,,,,,,,,,,,,,,1018.0845309169999,1018.1004768746673,1018.1008418749998,1029.000270042,1029.0045897500004,1029.014714125,1029.2318331249999,1029.2318331249999,1032.1389988330002,1032.7179442920005,4.233333333333333,3.09982783400028,1,[0.5883427499993559],[0.588345291999758],,,,,,,1035.7081770000004,1035.7192377500005,1035.7192377500005,1053.8600083749998,"have fun with it, not too fun, not too little",1,[18.148630041000615],[18.148633124999833],,,,,,,,,,,,,,,,,,,,,,1016.4178359580001,1016.4251392920005,1016.4251392920005,1016.4251392920005,1018.0843271250005,1,[1.6648318340003243],[1.6648345840003458],1032.7184651670004,1032.723496042,1035.7073306250004,1,[2.9884083749993806],[2.988411083999381],,,,,,,p_7,001,2024-05-08_13h59.42.954,speech_rate,2023.2.3,None,2024-05-08 13h59.57.937066 -0700,
,Someday_72_condition-3x.wav,Someday__Someday__Maybe__Unabridged___File_034_of_116_0.wav,Okay Yeah thanks I Say the exact same lines over and over again until they lose all meaning Someone with a stopwatch times me and for about four hours I'm either speeding up or slowing down by increments of one second to at most Takes that are 28 seconds strangely feel longer than the ones that are 26 Smile more smile less tilt my head talk to the camera like it's my best friend raise inflection on the name of the product But don't sell it not too much not too little have fun with it,What does the narrator do repeatedly?,A. Speak the same lines,B. Adjust the camera,C. Change outfits,D. Time herself with a stopwatch,A. Speak the same lines,yes,10.90125,,,,,,,,,,,,,0,12,12,12,0,0,0,0,,,,,,,,,,,,,,,,,,,,,,,,,,,,,,,,,,,,,,,,,,,,,,,,,,,,,,,,,,,,,,,,,,,,,,,,,,,,,,,,,,,,,,,,,,p_7,001,2024-05-08_13h59.42.954,speech_rate,2023.2.3,None,2024-05-08 13h59.57.937066 -0700,
,Someday_72_condition-3x.wav,Someday__Someday__Maybe__Unabridged___File_034_of_116_0.wav,Okay Yeah thanks I Say the exact same lines over and over again until they lose all meaning Someone with a stopwatch times me and for about four hours I'm either speeding up or slowing down by increments of one second to at most Takes that are 28 seconds strangely feel longer than the ones that are 26 Smile more smile less tilt my head talk to the camera like it's my best friend raise inflection on the name of the product But don't sell it not too much not too little have fun with it,What does the narrator do repeatedly?,A. Speak the same lines,B. Adjust the camera,C. Change outfits,D. Time herself with a stopwatch,A. Speak the same lines,yes,10.90125,,,,,,,,,,,,,0,12,12,12,,,,,,,,,,,,,,,,,,,,,,,,,,,,,,,,,,,,,,,,,,,,,,,,,,,,,1053.8605005420004,1061.9267167500002,1,8.056908625000688,8.056910834000519,0,,,0,,,0,,,,,,,,,,,,,,,,,,,,,,,,,,,,,,p_7,001,2024-05-08_13h59.42.954,speech_rate,2023.2.3,None,2024-05-08 13h59.57.937066 -0700,
,Someday_44_condition-2x.wav,Someday__Someday__Maybe__Unabridged___File_024_of_116_0.wav,It's such a talent to be able to make people laugh but God forbid you end up on something joyless and soul crushing like that show with all the nurses Hello New York The first person I spot outside the theater is Dina smoking with a few other classmates Dina is one of the older members of our class in her 40s maybe and is still sort of famous from a show she did in the 80s called There's Pierre which I remember watching all the time growing up but she never mentions it so I don't either,What show does the narrator consider joyless and soul-crushing?,A. A show about nurses,B. A show called "Hello New York",C. A show from the 80s,D. A show with Dina,A. A show about nurses,no,14.97,,,,,,,,,,,,,0,13,13,13,,,,,,,,,1061.9342603750001,,,,,,,,,,,,,,,1064.1593106250002,1064.1752579996667,1064.1802883330001,1079.153677542,1079.15554075,1079.1667709170006,1079.4090405000006,1079.4090405000006,1080.9094276249998,1081.8096521670004,9.95,2.1635473750002348,1,[0.9099327919993812],[0.9099351670001852],,,,,,,,,,,,,,,1081.8100972920001,1087.9880323329999,1,6.167673042000388,6.167675792000409,0,,,0,,,0,,,,,,,,,,1061.927168833,1061.9342603750001,1061.9342603750001,1061.9342603750001,1064.159096292,1,[2.231491583999741],[2.2314947919994665],,,,,,,,,,,,,p_7,001,2024-05-08_13h59.42.954,speech_rate,2023.2.3,None,2024-05-08 13h59.57.937066 -0700,
,Someday_74_condition-5x.wav,Someday__Someday__Maybe__Unabridged___File_035_of_116_2.wav,Barney wears a light blue sport coat and has thick white hair cropped very close to his head The whole place smells like cigar smoke and dust but there's something comforting about it I'm afraid my nervousness is obvious especially when I discover that the only way to sit in the one huge armchair opposite his desk is to sink into it and be swallowed I fight the chair for a minute trying to perch daintily on the edge and then give up and sit back which at least might make me look relaxed Francis Banks Barney Bellows,What is Barney Sparks wearing when the main character meets him?,A. A black tuxedo,B. A light blue sport coat,C. A red sweater,D. A white lab coat,B. A light blue sport coat,yes,5.948,,,,,,,,,,,,,0,14,14,14,0,0,0,0,0,0,0,0,1101.3588987920002,,,,,,,,,,,,,,,1090.0752510419998,1090.087736249667,1090.1035090000005,1096.0583810830003,1096.039460125,1096.0506718750003,1096.2590560420003,1096.2590560420003,1099.6878314169999,1100.4496115000002,1.0083333333333335,3.6129845830000704,1,[0.7711233750005704],[0.7711256660004437],,,,,,,1101.3471158749999,1101.3588987920002,1101.3588987920002,1101.954609667,,1,[0.6041040840000278],[0.6041073340002185],,,,,,,,,,,,,,,,,,,,,,1087.9885758330001,1087.9955125830002,1087.9955125830002,1087.9955125830002,1090.0749366250002,1,[2.084272416999738],[2.084282875000099],1100.4501914170005,1100.455208083,1101.3463073330004,1,[0.8955089999999473],[0.8955117909999899],,,,,,,p_7,001,2024-05-08_13h59.42.954,speech_rate,2023.2.3,None,2024-05-08 13h59.57.937066 -0700,
,Someday_74_condition-5x.wav,Someday__Someday__Maybe__Unabridged___File_035_of_116_2.wav,Barney wears a light blue sport coat and has thick white hair cropped very close to his head The whole place smells like cigar smoke and dust but there's something comforting about it I'm afraid my nervousness is obvious especially when I discover that the only way to sit in the one huge armchair opposite his desk is to sink into it and be swallowed I fight the chair for a minute trying to perch daintily on the edge and then give up and sit back which at least might make me look relaxed Francis Banks Barney Bellows,What is Barney Sparks wearing when the main character meets him?,A. A black tuxedo,B. A light blue sport coat,C. A red sweater,D. A white lab coat,B. A light blue sport coat,yes,5.948,,,,,,,,,,,,,0,14,14,14,0,0,0,0,,,,,,,,,,,,,,,,,,,,,,,,,,,,,,,,,,,,,,,,,,,,,,,,,,,,,,,,,,,,,,,,,,,,,,,,,,,,,,,,,,,,,,,,,,p_7,001,2024-05-08_13h59.42.954,speech_rate,2023.2.3,None,2024-05-08 13h59.57.937066 -0700,
,Someday_74_condition-5x.wav,Someday__Someday__Maybe__Unabridged___File_035_of_116_2.wav,Barney wears a light blue sport coat and has thick white hair cropped very close to his head The whole place smells like cigar smoke and dust but there's something comforting about it I'm afraid my nervousness is obvious especially when I discover that the only way to sit in the one huge armchair opposite his desk is to sink into it and be swallowed I fight the chair for a minute trying to perch daintily on the edge and then give up and sit back which at least might make me look relaxed Francis Banks Barney Bellows,What is Barney Sparks wearing when the main character meets him?,A. A black tuxedo,B. A light blue sport coat,C. A red sweater,D. A white lab coat,B. A light blue sport coat,yes,5.948,,,,,,,,,,,,,0,14,14,14,,,,,,,,,,,,,,,,,,,,,,,,,,,,,,,,,,,,,,,,,,,,,,,,,,,,,1101.9550900000004,1118.1045414170003,0,,,1,16.140184457999567,16.140186916999482,0,,,0,,,,,,,,,,,,,,,,,,,,,,,,,,,,,,p_7,001,2024-05-08_13h59.42.954,speech_rate,2023.2.3,None,2024-05-08 13h59.57.937066 -0700,
,Someday_95_condition-2x.wav,Someday__Someday__Maybe__Unabridged___File_041_of_116_2.wav,Sports God no no That's hilarious to think about I laugh picturing me and my dad who have been known to spend an entire weekend sitting in the living room reading books one after the other stopping only to eat a frozen pizza or make popcorn playing tennis or skiing or kayaking down some rapids Competitive like I always made everything a game when I was a kid I have a good memory and so does my dad so we try to stump each other like try to start reciting Jabberwocky from the middle,What does the narrator and their dad often do on weekends?,A. Play sports together,B. Go kayaking down rapids,C. Reading books,D. Watch movies and eat popcorn,C. Reading books,yes,14.66496875,,,,,,,,,,,,,0,15,15,15,0,0,0,0,0,0,0,0,1138.9003748330006,,,,,,,,,,,,,,,1119.3233388750004,1119.3553825413333,1119.3447223330004,1134.0131584580004,1134.0248000000001,1134.0461145,1134.2493605420004,1134.2493605420004,1135.5386920830006,1136.267978625,10,1.4526383330003227,1,[0.7541627499995229],[0.7541650419998405],,,,,,,1138.8892175,1138.9003748330006,1138.9003748330006,1168.890073208,"activities and relationship she has with her dad, being competitive reading boo",0,,,,,,,,,,,,,,,,,,,,,,,,1118.1050298750006,1118.1110198329998,1118.1110198329998,1118.1110198329998,1119.3230438750006,1,[1.216552750000119],[1.216555416999654],1136.2685516669999,1136.2737138749999,1138.888615125,1,[2.6196009169998433],[2.6196035419998225],,,,,,,p_7,001,2024-05-08_13h59.42.954,speech_rate,2023.2.3,None,2024-05-08 13h59.57.937066 -0700,
,Someday_95_condition-2x.wav,Someday__Someday__Maybe__Unabridged___File_041_of_116_2.wav,Sports God no no That's hilarious to think about I laugh picturing me and my dad who have been known to spend an entire weekend sitting in the living room reading books one after the other stopping only to eat a frozen pizza or make popcorn playing tennis or skiing or kayaking down some rapids Competitive like I always made everything a game when I was a kid I have a good memory and so does my dad so we try to stump each other like try to start reciting Jabberwocky from the middle,What does the narrator and their dad often do on weekends?,A. Play sports together,B. Go kayaking down rapids,C. Reading books,D. Watch movies and eat popcorn,C. Reading books,yes,14.66496875,,,,,,,,,,,,,0,15,15,15,0,0,0,0,,,,,,,,,,,,,,,,,,,,,,,,,,,,,,,,,,,,,,,,,,,,,,,,,,,,,,,,,,,,,,,,,,,,,,,,,,,,,,,,,,,,,,,,,,p_7,001,2024-05-08_13h59.42.954,speech_rate,2023.2.3,None,2024-05-08 13h59.57.937066 -0700,
,Someday_95_condition-2x.wav,Someday__Someday__Maybe__Unabridged___File_041_of_116_2.wav,Sports God no no That's hilarious to think about I laugh picturing me and my dad who have been known to spend an entire weekend sitting in the living room reading books one after the other stopping only to eat a frozen pizza or make popcorn playing tennis or skiing or kayaking down some rapids Competitive like I always made everything a game when I was a kid I have a good memory and so does my dad so we try to stump each other like try to start reciting Jabberwocky from the middle,What does the narrator and their dad often do on weekends?,A. Play sports together,B. Go kayaking down rapids,C. Reading books,D. Watch movies and eat popcorn,C. Reading books,yes,14.66496875,,,,,,,,,,,,,0,15,15,15,,,,,,,,,,,,,,,,,,,,,,,,,,,,,,,,,,,,,,,,,,,,,,,,,,,,,1168.890454333,1177.1523372500005,1,8.251267624999855,8.251270041999305,0,,,0,,,0,,,,,,,,,,,,,,,,,,,,,,,,,,,,,,p_7,001,2024-05-08_13h59.42.954,speech_rate,2023.2.3,None,2024-05-08 13h59.57.937066 -0700,
,Someday_61_condition-2x.wav,Someday__Someday__Maybe__Unabridged___File_030_of_116_0.wav,He said we all we all is not asking you out but why leave a message just to we all me I think he's asking me out in his own way We all means I asked for your number because I think you're cute but I'm seeing someone So I'm trying to pretend to myself that I just asked for your number to be friends with you And I'm asking if you want to have a drink sometime with me and my girlfriend which will never But it helps me feel like less of a shithead for asking for your number in the first place You've been we all'd my friend,What does the term "we all" imply in the context given by the narrator?,A. The person is directly asking the narrator out on a date,B. The person left a message to genuinely make a new friend,C. The person is extending an invitation for a group outing,D. The person might be expressing interest under the guise of friendship despite being in a relationship,D. The person might be expressing interest under the guise of friendship despite being in a relationship,yes,15.215,,,,,,,,,,,,,0,16,16,16,0,0,0,0,0,0,0,0,1200.1282847500006,,,,,,,,,,,,,,,1179.9109789579998,1179.9430660833336,1179.9343244580004,1195.1435067080001,1195.161785833,1195.1730214170002,1195.4466882080005,1195.4466882080005,1198.6928001670003,1199.3487794170005,10,3.492259667000326,1,[0.6679180829996767],[0.6679208329996982],,,,,,,1200.1171868749998,1200.1282847500006,1200.1282847500006,1230.1162775000003,to be we alled is where a guy asks for a girls number in the context of his girlfiend even though the gf id,0,,,,,,,,,,,,,,,,,,,,,,,,1177.1529238330004,1177.1601390000005,1177.1601390000005,1177.1601390000005,1179.910718958,1,[2.75608445799935],[2.7560871669993503],1199.3493159580003,1199.3591218749998,1200.1165095000006,1,[0.7667492910004512],[0.7667520409995632],1230.1388676670003,1230.1388676670003,,,,,p_7,001,2024-05-08_13h59.42.954,speech_rate,2023.2.3,None,2024-05-08 13h59.57.937066 -0700,
,Someday_61_condition-2x.wav,Someday__Someday__Maybe__Unabridged___File_030_of_116_0.wav,He said we all we all is not asking you out but why leave a message just to we all me I think he's asking me out in his own way We all means I asked for your number because I think you're cute but I'm seeing someone So I'm trying to pretend to myself that I just asked for your number to be friends with you And I'm asking if you want to have a drink sometime with me and my girlfriend which will never But it helps me feel like less of a shithead for asking for your number in the first place You've been we all'd my friend,What does the term "we all" imply in the context given by the narrator?,A. The person is directly asking the narrator out on a date,B. The person left a message to genuinely make a new friend,C. The person is extending an invitation for a group outing,D. The person might be expressing interest under the guise of friendship despite being in a relationship,D. The person might be expressing interest under the guise of friendship despite being in a relationship,yes,15.215,,,,,,,,,,,,,0,16,16,16,0,0,0,0,,,,,,,,,,,,,,,,,,,,,,,,,,,,,,,,,,,,,,,,,,,,,,,,,,,,,,,,,,,,,,,,,,,,,,,,,,,,,,,,,,,,,,,,,,p_7,001,2024-05-08_13h59.42.954,speech_rate,2023.2.3,None,2024-05-08 13h59.57.937066 -0700,
,Someday_61_condition-2x.wav,Someday__Someday__Maybe__Unabridged___File_030_of_116_0.wav,He said we all we all is not asking you out but why leave a message just to we all me I think he's asking me out in his own way We all means I asked for your number because I think you're cute but I'm seeing someone So I'm trying to pretend to myself that I just asked for your number to be friends with you And I'm asking if you want to have a drink sometime with me and my girlfriend which will never But it helps me feel like less of a shithead for asking for your number in the first place You've been we all'd my friend,What does the term "we all" imply in the context given by the narrator?,A. The person is directly asking the narrator out on a date,B. The person left a message to genuinely make a new friend,C. The person is extending an invitation for a group outing,D. The person might be expressing interest under the guise of friendship despite being in a relationship,D. The person might be expressing interest under the guise of friendship despite being in a relationship,yes,15.215,,,,,,,,,,,,,0,16,16,16,,,,,,,,,,,,,,,,,,,,,,,,,,,,,,,,,,,,,,,,,,,,,,,,,,,,,1230.1167173330005,1243.7133080419999,0,,,0,,,0,,,1,13.5837969589993,13.583799791999809,,,,,,,,,,,,,,,,,,,,,,,,,,,,p_7,001,2024-05-08_13h59.42.954,speech_rate,2023.2.3,None,2024-05-08 13h59.57.937066 -0700,
,Someday_104_condition-2x.wav,Someday__Someday__Maybe__Unabridged___File_047_of_116_0.wav,Do you feel good about it I'm not sure I think so The audience laughed Lots of people said I did well But I have no idea who any of them were or if they were the ones I needed to impress But the laughing thing was getting such a positive reaction from the audience The writer decided to give me a line Jane's eyes go wide No way I know I got really excited too Which is so dumb when you think about it I've done whole plays in summer stock and all those scenes in class,What positive outcome does the narrator mention regarding her audition?,A. The writer decided to give her a line,B. Jane was impressed with her performance,C. She received a standing ovation,D. She secured a lead role in the play,A. The writer decided to give her a line,yes,14.615,,,,,,,,,,,,,0,17,17,17,0,0,0,0,0,0,0,0,1267.6326327920005,,,,,,,,,,,,,,,1248.9802,1248.9961578746672,1249.0013466669998,1263.6357954169998,1263.6166558330006,1263.6278923750006,1263.8936184579998,1263.8936184579998,1266.013248958,1266.7259601670003,9.925,2.3576924590006456,1,[0.7252819999994244],[0.7252841659992555],,,,,,,1267.6210264170004,1267.6326327920005,1267.6326327920005,1288.533306542,she was given a whole line and got really excited about it ,1,[20.9088914999993],[20.908894999999575],,,,,,,,,,,,,,,,,,,,,,1243.71390625,1243.7211361250002,1243.7211361250002,1243.7211361250002,1248.9799938329998,1,[5.264428374999625],[5.264430958000048],1266.726491542,1266.7313599170002,1267.6203691250003,1,[0.8934093329999087],[0.8934119999994437],,,,,,,p_7,001,2024-05-08_13h59.42.954,speech_rate,2023.2.3,None,2024-05-08 13h59.57.937066 -0700,
,Someday_104_condition-2x.wav,Someday__Someday__Maybe__Unabridged___File_047_of_116_0.wav,Do you feel good about it I'm not sure I think so The audience laughed Lots of people said I did well But I have no idea who any of them were or if they were the ones I needed to impress But the laughing thing was getting such a positive reaction from the audience The writer decided to give me a line Jane's eyes go wide No way I know I got really excited too Which is so dumb when you think about it I've done whole plays in summer stock and all those scenes in class,What positive outcome does the narrator mention regarding her audition?,A. The writer decided to give her a line,B. Jane was impressed with her performance,C. She received a standing ovation,D. She secured a lead role in the play,A. The writer decided to give her a line,yes,14.615,,,,,,,,,,,,,0,17,17,17,0,0,0,0,,,,,,,,,,,,,,,,,,,,,,,,,,,,,,,,,,,,,,,,,,,,,,,,,,,,,,,,,,,,,,,,,,,,,,,,,,,,,,,,,,,,,,,,,,p_7,001,2024-05-08_13h59.42.954,speech_rate,2023.2.3,None,2024-05-08 13h59.57.937066 -0700,
,Someday_104_condition-2x.wav,Someday__Someday__Maybe__Unabridged___File_047_of_116_0.wav,Do you feel good about it I'm not sure I think so The audience laughed Lots of people said I did well But I have no idea who any of them were or if they were the ones I needed to impress But the laughing thing was getting such a positive reaction from the audience The writer decided to give me a line Jane's eyes go wide No way I know I got really excited too Which is so dumb when you think about it I've done whole plays in summer stock and all those scenes in class,What positive outcome does the narrator mention regarding her audition?,A. The writer decided to give her a line,B. Jane was impressed with her performance,C. She received a standing ovation,D. She secured a lead role in the play,A. The writer decided to give her a line,yes,14.615,,,,,,,,,,,,,0,17,17,17,,,,,,,,,,,,,,,,,,,,,,,,,,,,,,,,,,,,,,,,,,,,,,,,,,,,,1288.5338178330003,1294.4728175420005,1,5.92790100000002,5.927904874999513,0,,,0,,,0,,,,,,,,,,,,,,,,,,,,,,,,,,,,,,p_7,001,2024-05-08_13h59.42.954,speech_rate,2023.2.3,None,2024-05-08 13h59.57.937066 -0700,
,Someday_24_condition-3x.wav,Someday__Someday__Maybe__Unabridged___File_015_of_116_0.wav,Thanks I say and then for no reason Any adjustments Stupid stupid Don't ask to do it again when you don't know what you did in the first place They both cock their heads at the same angle like two puppies in a pet store window Then they nod to each other again Sure yeah let's do one more just for kicks Yeah I mean that was great but let's in this one really have fun with it but also take it seriously like you did Yeah serious but fun like you're talking to your best friend Yeah like you're sharing a secret with your best friend,What do the casting directors suggest after the narrator's audition?,A. They compliment her performance,B. They ask her to do it in a more fun but serious way,C. They reject her immediately,D. They offer her the role,B. They ask her to do it in a more fun but serious way,yes,11.2125,,,,,,,,,,,,,0,18,18,18,0,0,0,0,0,0,0,0,1314.0981420420003,,,,,,,,,,,,,,,1298.1047972920005,1298.1207557496666,1298.1212336670005,1309.3336021249997,1309.33558825,1309.3464227080003,1309.596928375,1309.596928375,1311.488344583,1313.2291197920003,7.824999999999999,3.351294582999799,1,[1.7500220420006372],[1.7500244580005528],,,,,,,1314.0866915830002,1314.0981420420003,1314.0981420420003,1344.0845352920005,"taking something really seriously, like your sharing a secret with your best friend. i think theyre taking ohotod ",0,,,,,,,,,,,,,,,,,,,,,,,,1294.4732697919999,1294.481066333,1294.481066333,1294.481066333,1298.1046035420004,1,[3.6308833330003836],[3.6308858749998763],1313.2296828750004,1313.2343503749998,1314.085248708,1,[0.8546578750001572],[0.8546607910002422],1344.1051114170004,1344.1051114170004,,,,,p_7,001,2024-05-08_13h59.42.954,speech_rate,2023.2.3,None,2024-05-08 13h59.57.937066 -0700,
,Someday_24_condition-3x.wav,Someday__Someday__Maybe__Unabridged___File_015_of_116_0.wav,Thanks I say and then for no reason Any adjustments Stupid stupid Don't ask to do it again when you don't know what you did in the first place They both cock their heads at the same angle like two puppies in a pet store window Then they nod to each other again Sure yeah let's do one more just for kicks Yeah I mean that was great but let's in this one really have fun with it but also take it seriously like you did Yeah serious but fun like you're talking to your best friend Yeah like you're sharing a secret with your best friend,What do the casting directors suggest after the narrator's audition?,A. They compliment her performance,B. They ask her to do it in a more fun but serious way,C. They reject her immediately,D. They offer her the role,B. They ask her to do it in a more fun but serious way,yes,11.2125,,,,,,,,,,,,,0,18,18,18,0,0,0,0,,,,,,,,,,,,,,,,,,,,,,,,,,,,,,,,,,,,,,,,,,,,,,,,,,,,,,,,,,,,,,,,,,,,,,,,,,,,,,,,,,,,,,,,,,p_7,001,2024-05-08_13h59.42.954,speech_rate,2023.2.3,None,2024-05-08 13h59.57.937066 -0700,
,Someday_24_condition-3x.wav,Someday__Someday__Maybe__Unabridged___File_015_of_116_0.wav,Thanks I say and then for no reason Any adjustments Stupid stupid Don't ask to do it again when you don't know what you did in the first place They both cock their heads at the same angle like two puppies in a pet store window Then they nod to each other again Sure yeah let's do one more just for kicks Yeah I mean that was great but let's in this one really have fun with it but also take it seriously like you did Yeah serious but fun like you're talking to your best friend Yeah like you're sharing a secret with your best friend,What do the casting directors suggest after the narrator's audition?,A. They compliment her performance,B. They ask her to do it in a more fun but serious way,C. They reject her immediately,D. They offer her the role,B. They ask her to do it in a more fun but serious way,yes,11.2125,,,,,,,,,,,,,0,18,18,18,,,,,,,,,,,,,,,,,,,,,,,,,,,,,,,,,,,,,,,,,,,,,,,,,,,,,1344.0849476250005,1353.2099242499999,0,,,1,9.114351917000022,9.114354416999959,0,,,0,,,,,,,,,,,,,,,,,,,,,,,,,,,,,,p_7,001,2024-05-08_13h59.42.954,speech_rate,2023.2.3,None,2024-05-08 13h59.57.937066 -0700,
,Someday_3_condition-2x.wav,Someday__Someday__Maybe__Unabridged___File_005_of_116_1.wav,I suppose I did but I'm still too groggy to focus on the details Normally I would have asked our other roommate my best friend Jane but she's been working nights as a PA on that new Russell Blakely movie Since Dan moved into the bedroom downstairs a few months ago I haven't noticed much about him except how unnecessarily tall he is how many hours he spends writing at the computer and the intense fear he seems to have about coming upon either of us when we're not decent Dan come in You're decent,What is the main reason the narrator doesn't ask their roommate Jane for help?,A. Jane is too busy working,B. Jane is not a good friend,C. The narrator doesn't trust Jane,D. The narrator prefers not to talk to anyone,A. Jane is too busy working,yes,14.835,,,,,,,,,,,,,0,19,19,19,0,0,0,0,0,0,0,0,1377.4388360829998,,,,,,,,,,,,,,,1355.070727292,1355.0857221666668,1355.0904487920006,1369.92047,1369.9259620000003,1369.937195208,1370.205267458,1370.205267458,1376.004791333,1376.665834417,9.991666666666665,6.0427427499998885,1,[0.6701413750006395],[0.6701435000004494],,,,,,,1377.4276408330006,1377.4388360829998,1377.4388360829998,1407.4228527080004,shw eould go and talk to her best friend but she has moved out  dan is weird,0,,,,,,,,,,,,,,,,,,,,,,,,1353.2104365000005,1353.217096542,1353.217096542,1353.217096542,1355.0704519170004,1,[1.8580751250001413],[1.8580778329996974],1376.6663578750004,1376.6710401250002,1377.4268212080005,1,[0.7599484590000429],[0.7599522089994935],1407.4427679170003,1407.4427679170003,,,,,p_7,001,2024-05-08_13h59.42.954,speech_rate,2023.2.3,None,2024-05-08 13h59.57.937066 -0700,
,Someday_3_condition-2x.wav,Someday__Someday__Maybe__Unabridged___File_005_of_116_1.wav,I suppose I did but I'm still too groggy to focus on the details Normally I would have asked our other roommate my best friend Jane but she's been working nights as a PA on that new Russell Blakely movie Since Dan moved into the bedroom downstairs a few months ago I haven't noticed much about him except how unnecessarily tall he is how many hours he spends writing at the computer and the intense fear he seems to have about coming upon either of us when we're not decent Dan come in You're decent,What is the main reason the narrator doesn't ask their roommate Jane for help?,A. Jane is too busy working,B. Jane is not a good friend,C. The narrator doesn't trust Jane,D. The narrator prefers not to talk to anyone,A. Jane is too busy working,yes,14.835,,,,,,,,,,,,,0,19,19,19,0,0,0,0,,,,,,,,,,,,,,,,,,,,,,,,,,,,,,,,,,,,,,,,,,,,,,,,,,,,,,,,,,,,,,,,,,,,,,,,,,,,,,,,,,,,,,,,,,p_7,001,2024-05-08_13h59.42.954,speech_rate,2023.2.3,None,2024-05-08 13h59.57.937066 -0700,
,Someday_3_condition-2x.wav,Someday__Someday__Maybe__Unabridged___File_005_of_116_1.wav,I suppose I did but I'm still too groggy to focus on the details Normally I would have asked our other roommate my best friend Jane but she's been working nights as a PA on that new Russell Blakely movie Since Dan moved into the bedroom downstairs a few months ago I haven't noticed much about him except how unnecessarily tall he is how many hours he spends writing at the computer and the intense fear he seems to have about coming upon either of us when we're not decent Dan come in You're decent,What is the main reason the narrator doesn't ask their roommate Jane for help?,A. Jane is too busy working,B. Jane is not a good friend,C. The narrator doesn't trust Jane,D. The narrator prefers not to talk to anyone,A. Jane is too busy working,yes,14.835,,,,,,,,,,,,,0,19,19,19,,,,,,,,,,,,,,,,,,,,,,,,,,,,,,,,,,,,,,,,,,,,,,,,,,,,,1407.4233198749998,1414.525082,1,7.091471084000659,7.091473709000638,0,,,0,,,0,,,,,,,,,,,,,,,,,,,,,,,,,,,,,,p_7,001,2024-05-08_13h59.42.954,speech_rate,2023.2.3,None,2024-05-08 13h59.57.937066 -0700,
,Someday_20_condition-3x.wav,Someday__Someday__Maybe__Unabridged___File_012_of_116_1.wav,Upstairs the waiting room is crowded which means there must be a few different casting calls There are boys and girls near the age of the elevator twins a couple of men in their 50s both in suit and tie and several girls who remind me of me but a better more put together me the me who would play me in the TV movie of the fictional life of the real me I sign in Name time arrived time scheduled agency social security number,What observation does the narrator make about the individuals in the waiting room?,A. They are all likely there for the same casting call,B. They are unorganized and scattered,"C. They appear to be different versions of the narrator, better and more composed",D. They are unrelated to the narrator's field of work,"C. They appear to be different versions of the narrator, better and more composed",no,10.2975,,,,,,,,,,,,,0,20,20,20,,,,,,,,,1414.5387232499997,,,,,,,,,,,,,,,1416.9238126669998,1416.9392623746664,1416.9394658749998,1427.2404900830006,1427.242906417,1427.2541206249998,1427.5237747500005,1427.5237747500005,1430.2225700830004,1430.9847981250005,10,2.940930791000028,1,[0.7747522079998816],[0.7747550829999454],,,,,,,,,,,,,,,1430.9852345,1440.0083580420005,0,,,0,,,1,9.012446292000277,9.012449292000383,0,,,,,,,,,,1414.5256328750002,1414.5387232499997,1414.5387232499997,1414.5387232499997,1416.9235616249998,1,[2.3962515000002895],[2.3962541669998245],,,,,,,,,,,,,p_7,001,2024-05-08_13h59.42.954,speech_rate,2023.2.3,None,2024-05-08 13h59.57.937066 -0700,
,Someday_65_condition-4x.wav,Someday__Someday__Maybe__Unabridged___File_032_of_116_0.wav,From the minute I walk into the wardrobe fitting in a trailer near mine I'm confused There are two giant rolling racks one full of tan trousers one stuffed with 30 or 40 identical blue shirts Oh Are there are there more people coming I ask a harried looking woman nearby She looks at me as though I've said something strange what oh the racks No those are all for you But aren't these all the same pants I say laughing a little,What does the narrator find confusing in the wardrobe fitting?,A. The lack of clothing options,B. The number of people there,C. The presence of a harried woman,D. The identical blue shirts and tan trousers,D. The identical blue shirts and tan trousers,yes,7.0225,,,,,,,,,,,,,0,21,21,21,0,0,0,0,0,0,0,0,1452.9931544170004,,,,,,,,,,,,,,,1441.5961679170005,1441.6116858336666,1441.6093366670002,1448.6249383330005,1448.6437570830003,1448.654259125,1448.8595905829998,1448.8595905829998,1451.530176667,1452.152632458,2.8583333333333334,2.8507921660002467,1,[0.6318537500001185],[0.6318560419995265],,,,,,,1452.9810551250002,1452.9931544170004,1452.9931544170004,1462.1769184579998,"tshirt, strange , those are for you ",1,[9.192299542],[9.19230562499979],,,,,,,,,,,,,,,,,,,,,,1440.0088865420003,1440.0159950830002,1440.0159950830002,1440.0159950830002,1441.595959667,1,[1.5854012910003803],[1.5854040829999576],1452.153128,1452.1734674580002,1452.9801632500003,1,[0.8265399160000015],[0.8265427080004883],,,,,,,p_7,001,2024-05-08_13h59.42.954,speech_rate,2023.2.3,None,2024-05-08 13h59.57.937066 -0700,
,Someday_65_condition-4x.wav,Someday__Someday__Maybe__Unabridged___File_032_of_116_0.wav,From the minute I walk into the wardrobe fitting in a trailer near mine I'm confused There are two giant rolling racks one full of tan trousers one stuffed with 30 or 40 identical blue shirts Oh Are there are there more people coming I ask a harried looking woman nearby She looks at me as though I've said something strange what oh the racks No those are all for you But aren't these all the same pants I say laughing a little,What does the narrator find confusing in the wardrobe fitting?,A. The lack of clothing options,B. The number of people there,C. The presence of a harried woman,D. The identical blue shirts and tan trousers,D. The identical blue shirts and tan trousers,yes,7.0225,,,,,,,,,,,,,0,21,21,21,0,0,0,0,,,,,,,,,,,,,,,,,,,,,,,,,,,,,,,,,,,,,,,,,,,,,,,,,,,,,,,,,,,,,,,,,,,,,,,,,,,,,,,,,,,,,,,,,,p_7,001,2024-05-08_13h59.42.954,speech_rate,2023.2.3,None,2024-05-08 13h59.57.937066 -0700,
,Someday_65_condition-4x.wav,Someday__Someday__Maybe__Unabridged___File_032_of_116_0.wav,From the minute I walk into the wardrobe fitting in a trailer near mine I'm confused There are two giant rolling racks one full of tan trousers one stuffed with 30 or 40 identical blue shirts Oh Are there are there more people coming I ask a harried looking woman nearby She looks at me as though I've said something strange what oh the racks No those are all for you But aren't these all the same pants I say laughing a little,What does the narrator find confusing in the wardrobe fitting?,A. The lack of clothing options,B. The number of people there,C. The presence of a harried woman,D. The identical blue shirts and tan trousers,D. The identical blue shirts and tan trousers,yes,7.0225,,,,,,,,,,,,,0,21,21,21,,,,,,,,,,,,,,,,,,,,,,,,,,,,,,,,,,,,,,,,,,,,,,,,,,,,,1462.1774221249998,1470.9040515420002,0,,,1,8.71567320899976,8.71567637499993,0,,,0,,,,,,,,,,,,,,,,,,,,,,,,,,,,,,p_7,001,2024-05-08_13h59.42.954,speech_rate,2023.2.3,None,2024-05-08 13h59.57.937066 -0700,
,Someday_26_condition-2x.wav,Someday__Someday__Maybe__Unabridged___File_015_of_116_2.wav,My stomach lurches The action between each line is the exact opposite of what the line is After kids are my number one priority it says rushing mom gets daughter to school just as the bell is ringing After the thing about always having time for friends looks at answering machine guiltily and decides to screen the call At the end the harried housewife stuffs an impossible amount of dirty clothes in the washer which miraculously come out clean and she gets a huge hug from her approving husband,What is the narrator's reaction to the script she's reading?,A. Her stomach lurches,B. She finds it amusing,C. She feels inspired,D. She is moved to tears,A. Her stomach lurches,yes,13.94496875,,,,,,,,,,,,,0,22,22,22,0,0,0,0,0,0,0,0,1493.4770064169998,,,,,,,,,,,,,,,1473.0770281249997,1473.0924519166667,1473.0962249579998,1487.0331730420003,1487.045566875,1487.0560569999998,1487.2777869580004,1487.2777869580004,1491.4320557500005,1492.6453912920006,7.816666666666666,4.947913416999654,1,[1.2225333750002392],[1.222536250000303],,,,,,,1493.4623700419997,1493.4770064169998,1493.4770064169998,1523.4628157920006,husband approves of her ability to do laundry. sudden hsit to womanhood f getting kids into school on time,0,,,,,,,,,,,,,,,,,,,,,,,,1470.904644667,1470.9123314170001,1470.9123314170001,1470.9123314170001,1473.0767770000002,1,[2.1703541249999034],[2.1703570420004326],1492.6459598330002,1492.659778542,1493.4615763330003,1,[0.8150885420000122],[0.8150912500004779],1523.4818392080006,1523.4818392080006,,,,,p_7,001,2024-05-08_13h59.42.954,speech_rate,2023.2.3,None,2024-05-08 13h59.57.937066 -0700,
,Someday_26_condition-2x.wav,Someday__Someday__Maybe__Unabridged___File_015_of_116_2.wav,My stomach lurches The action between each line is the exact opposite of what the line is After kids are my number one priority it says rushing mom gets daughter to school just as the bell is ringing After the thing about always having time for friends looks at answering machine guiltily and decides to screen the call At the end the harried housewife stuffs an impossible amount of dirty clothes in the washer which miraculously come out clean and she gets a huge hug from her approving husband,What is the narrator's reaction to the script she's reading?,A. Her stomach lurches,B. She finds it amusing,C. She feels inspired,D. She is moved to tears,A. Her stomach lurches,yes,13.94496875,,,,,,,,,,,,,0,22,22,22,0,0,0,0,,,,,,,,,,,,,,,,,,,,,,,,,,,,,,,,,,,,,,,,,,,,,,,,,,,,,,,,,,,,,,,,,,,,,,,,,,,,,,,,,,,,,,,,,,p_7,001,2024-05-08_13h59.42.954,speech_rate,2023.2.3,None,2024-05-08 13h59.57.937066 -0700,
,Someday_26_condition-2x.wav,Someday__Someday__Maybe__Unabridged___File_015_of_116_2.wav,My stomach lurches The action between each line is the exact opposite of what the line is After kids are my number one priority it says rushing mom gets daughter to school just as the bell is ringing After the thing about always having time for friends looks at answering machine guiltily and decides to screen the call At the end the harried housewife stuffs an impossible amount of dirty clothes in the washer which miraculously come out clean and she gets a huge hug from her approving husband,What is the narrator's reaction to the script she's reading?,A. Her stomach lurches,B. She finds it amusing,C. She feels inspired,D. She is moved to tears,A. Her stomach lurches,yes,13.94496875,,,,,,,,,,,,,0,22,22,22,,,,,,,,,,,,,,,,,,,,,,,,,,,,,,,,,,,,,,,,,,,,,,,,,,,,,1523.4632916669998,1530.2803733330002,1,6.807818749999569,6.807821333999527,0,,,0,,,0,,,,,,,,,,,,,,,,,,,,,,,,,,,,,,p_7,001,2024-05-08_13h59.42.954,speech_rate,2023.2.3,None,2024-05-08 13h59.57.937066 -0700,
,Someday_38_condition-3x.wav,Someday__Someday__Maybe__Unabridged___File_021_of_116_0.wav,Standing this close to him for the second time it occurs to me that his scarf is homemade and I feel a pang of jealousy wondering who knit it for him I like to be cold I say in what I hope is an appealing yet mysterious way that will make him regret not calling me while trying not to shiver Did you were you just in there I ask eyeing him carefully please God say no In the audience Yeah I was standing in the back It's over They just had curtain call,What does the narrator feel jealous about?,A. The actor's performance,B. The actor's homemade scarf,C. The audience's response,D. The actor's phone call,B. The actor's homemade scarf,no,11.0925,,,,,,,,,,,,,0,23,23,23,,,,,,,,,1530.287451917,,,,,,,,,,,,,,,1532.630814,1532.646033541667,1532.6474268749998,1543.7368199580005,1543.7399083330001,1543.7511129169998,1544.0231253749998,1544.0231253749998,1546.3358194170005,1547.0476077080002,5.883333333333334,2.559752541999842,1,[0.72108712499994],[0.7210894999998345],,,,,,,,,,,,,,,1547.0480619580003,1552.837552375,0,,,0,,,1,5.78158729200004,5.781590499999766,0,,,,,,,,,,1530.281023292,1530.287451917,1530.287451917,1530.287451917,1532.6305256670003,1,[2.348930083000596],[2.3489328750001732],,,,,,,,,,,,,p_7,001,2024-05-08_13h59.42.954,speech_rate,2023.2.3,None,2024-05-08 13h59.57.937066 -0700,
,Someday_108_condition-3x.wav,Someday__Someday__Maybe__Unabridged___File_048_of_116_1.wav,Clothes that have to be dry cleaned are already the most expensive clothes Then it's like they're charging you another 3 every time you wear them Regular clothes charge money to clean them if we're looking at it that way Regular laundry costs money too but not as much And you can do regular laundry yourself Dry cleaning is like the secret society you're not allowed into No matter what you're at their mercy You can have a PhD in anything but you still can't dry clean your own clothes They'll never tell you how No one's ever even seen what the machine looks like,What is the narrator's opinion about dry cleaning?,A. It's less expensive than regular laundry,B. It's a secret society with hidden machines,C. It's environmentally friendly,D. It's a simple and accessible process,B. It's a secret society with hidden machines,no,10.75125,,,,,,,,,,,,,0,24,24,24,,,,,,,,,1552.8459292500002,,,,,,,,,,,,,,,1555.8379450000002,1555.8533974586664,1555.8540037500006,1566.6058458329999,1566.6073676249998,1566.6186201250002,1566.8355209170004,1566.8355209170004,1568.547284458,1569.2773114170004,10,1.9001885409998067,1,[0.742882708000252],[0.7428849999996601],,,,,,,,,,,,,,,1569.2777477500003,1574.2891560830003,0,,,1,5.002176707999752,5.00217954100026,0,,,0,,,,,,,,,,1552.8380444169998,1552.8459292500002,1552.8459292500002,1552.8459292500002,1555.8376725420003,1,[2.998212125000464],[2.998214750000443],,,,,,,,,,,,,p_7,001,2024-05-08_13h59.42.954,speech_rate,2023.2.3,None,2024-05-08 13h59.57.937066 -0700,
,Someday_110_condition-4x.wav,Someday__Someday__Maybe__Unabridged___File_048_of_116_3.wav,But still the dry cleaners own you You're at their mercy Clothes that have to be dry cleaned look down on you Is it the clothes who are to blame or the dry cleaning professionals themselves Chicken or the egg my friend This new dry cleaning conspiracy theory reminds me of your fear of ironing This is nothing like my fear of ironing Although ironing is another secret society that doesn't want you to know what's up Do you know anyone who can tell you why the ironing board is shaped that way How does it help me that it's the size of a surfboard,What is the dry cleaning conspiracy theory being compared to?,A. A fear of ironing,B. The shape of an ironing board,C. A secret society,D. A surfboard,A. A fear of ironing,yes,7.1,,,,,,,,,,,,,0,25,25,25,0,0,0,0,0,0,0,0,1594.0170089170006,,,,,,,,,,,,,,,1581.0501623750006,1581.065484791667,1581.0630191250002,1588.1567015420005,1588.1677922079998,1588.1790323750001,1588.3850129580005,1588.3850129580005,1591.942748208,1592.8355460000002,1.9833333333333334,3.736656624999341,1,[0.9018697500005146],[0.9018720000003668],,,,,,,1594.0055937500001,1594.0170089170006,1594.0170089170006,1612.3856635829998,"dry cleaning, how does this work?",1,[18.37678374999996],[18.376787457999853],,,,,,,,,,,,,,,,,,,,,,1574.2896220419998,1574.296518917,1574.296518917,1574.296518917,1581.0499197079998,1,[6.758678500000315],[6.758681167000759],1592.8360444999998,1592.848160083,1594.0047942500005,1,[1.1682143750003888],[1.1682168330007698],,,,,,,p_7,001,2024-05-08_13h59.42.954,speech_rate,2023.2.3,None,2024-05-08 13h59.57.937066 -0700,
,Someday_110_condition-4x.wav,Someday__Someday__Maybe__Unabridged___File_048_of_116_3.wav,But still the dry cleaners own you You're at their mercy Clothes that have to be dry cleaned look down on you Is it the clothes who are to blame or the dry cleaning professionals themselves Chicken or the egg my friend This new dry cleaning conspiracy theory reminds me of your fear of ironing This is nothing like my fear of ironing Although ironing is another secret society that doesn't want you to know what's up Do you know anyone who can tell you why the ironing board is shaped that way How does it help me that it's the size of a surfboard,What is the dry cleaning conspiracy theory being compared to?,A. A fear of ironing,B. The shape of an ironing board,C. A secret society,D. A surfboard,A. A fear of ironing,yes,7.1,,,,,,,,,,,,,0,25,25,25,0,0,0,0,,,,,,,,,,,,,,,,,,,,,,,,,,,,,,,,,,,,,,,,,,,,,,,,,,,,,,,,,,,,,,,,,,,,,,,,,,,,,,,,,,,,,,,,,,p_7,001,2024-05-08_13h59.42.954,speech_rate,2023.2.3,None,2024-05-08 13h59.57.937066 -0700,
,Someday_110_condition-4x.wav,Someday__Someday__Maybe__Unabridged___File_048_of_116_3.wav,But still the dry cleaners own you You're at their mercy Clothes that have to be dry cleaned look down on you Is it the clothes who are to blame or the dry cleaning professionals themselves Chicken or the egg my friend This new dry cleaning conspiracy theory reminds me of your fear of ironing This is nothing like my fear of ironing Although ironing is another secret society that doesn't want you to know what's up Do you know anyone who can tell you why the ironing board is shaped that way How does it help me that it's the size of a surfboard,What is the dry cleaning conspiracy theory being compared to?,A. A fear of ironing,B. The shape of an ironing board,C. A secret society,D. A surfboard,A. A fear of ironing,yes,7.1,,,,,,,,,,,,,0,25,25,25,,,,,,,,,,,,,,,,,,,,,,,,,,,,,,,,,,,,,,,,,,,,,,,,,,,,,1612.386181125,1618.4782090830004,0,,,0,,,1,6.082129166999948,6.082132667000224,0,,,,,,,,,,,,,,,,,,,,,,,,,,,,,,p_7,001,2024-05-08_13h59.42.954,speech_rate,2023.2.3,None,2024-05-08 13h59.57.937066 -0700,
,Someday_124_condition-3x.wav,Someday__Someday__Maybe__Unabridged___File_054_of_116_4.wav,If I come home to you eating a pint of Haagen Dazs and watching When Harry Met Sally I'm calling the police What are they going to do arrest me for being a cliché So when the phone rings at 1130 that morning I lunge for it grabbing it on the second ring I'll pretend to Jane I'm in good spirits I'll act peppy as if I've been up for hours Hello this is Richard calling from Absolute Artists Is Franny there,Who calls the main character from Absolute Artists?,A. Barney Sparks,B. Richard,C. Jane,D. Dan,B. Richard,yes,10.78875,,,,,,,,,,,,,0,26,26,26,0,0,0,0,0,0,0,0,1636.9653951250002,,,,,,,,,,,,,,,1620.2522876250005,1620.2676500836671,1620.2686910419998,1631.0603225000004,1631.0607773330003,1631.0716160000002,1631.317795375,1631.317795375,1633.007686,1635.0165149169998,4.824999999999999,1.9109152500004711,1,[2.018088916999659],[2.01809137500004],,,,,,,1636.9539568330001,1636.9653951250002,1636.9653951250002,1657.1880080420005,if i come homa and youared doing this im going to be absolutely fuming ,1,[20.23069391700028],[20.23069766700064],,,,,,,,,,,,,,,,,,,,,,1618.4787569580003,1618.485939708,1618.485939708,1618.485939708,1620.2520144170003,1,[1.7715680830006022],[1.7715708750001795],1635.0171457080005,1635.0224078330002,1636.9530224999999,1,[1.9352786250001373],[1.935281207999651],,,,,,,p_7,001,2024-05-08_13h59.42.954,speech_rate,2023.2.3,None,2024-05-08 13h59.57.937066 -0700,
,Someday_124_condition-3x.wav,Someday__Someday__Maybe__Unabridged___File_054_of_116_4.wav,If I come home to you eating a pint of Haagen Dazs and watching When Harry Met Sally I'm calling the police What are they going to do arrest me for being a cliché So when the phone rings at 1130 that morning I lunge for it grabbing it on the second ring I'll pretend to Jane I'm in good spirits I'll act peppy as if I've been up for hours Hello this is Richard calling from Absolute Artists Is Franny there,Who calls the main character from Absolute Artists?,A. Barney Sparks,B. Richard,C. Jane,D. Dan,B. Richard,yes,10.78875,,,,,,,,,,,,,0,26,26,26,0,0,0,0,,,,,,,,,,,,,,,,,,,,,,,,,,,,,,,,,,,,,,,,,,,,,,,,,,,,,,,,,,,,,,,,,,,,,,,,,,,,,,,,,,,,,,,,,,p_7,001,2024-05-08_13h59.42.954,speech_rate,2023.2.3,None,2024-05-08 13h59.57.937066 -0700,
,Someday_124_condition-3x.wav,Someday__Someday__Maybe__Unabridged___File_054_of_116_4.wav,If I come home to you eating a pint of Haagen Dazs and watching When Harry Met Sally I'm calling the police What are they going to do arrest me for being a cliché So when the phone rings at 1130 that morning I lunge for it grabbing it on the second ring I'll pretend to Jane I'm in good spirits I'll act peppy as if I've been up for hours Hello this is Richard calling from Absolute Artists Is Franny there,Who calls the main character from Absolute Artists?,A. Barney Sparks,B. Richard,C. Jane,D. Dan,B. Richard,yes,10.78875,,,,,,,,,,,,,0,26,26,26,,,,,,,,,,,,,,,,,,,,,,,,,,,,,,,,,,,,,,,,,,,,,,,,,,,,,1657.1885430829998,1688.59127,0,,,0,,,0,,,1,31.3943269170004,31.39433008300057,,,,,,,,,,,,,,,,,,,,,,,,,,,,p_7,001,2024-05-08_13h59.42.954,speech_rate,2023.2.3,None,2024-05-08 13h59.57.937066 -0700,
,Someday_14_condition-3x.wav,Someday__Someday__Maybe__Unabridged___File_009_of_116_2.wav,Jane grew up in Greenwich Village in Manhattan and has style Where I struggle to match a black shirt with black pants she throws on jeans and a t shirt and nine chunky cuffs on one wrist with an air that says so I dare you to not find this cool She shops at Century 21 and Boltons and second hand stores and somehow makes it all look expensive Wait Jane Levine you are not just getting home are you I ask peeking into one of the brown bags Can they do that to you,Where did Jane grow up in?,A. Williamsburg,B. Greenwich Village,C. SoHo,D. Queens,B. Greenwich Village,yes,10.56,,,,,,,,,,,,,0,27,27,27,0,0,0,0,0,0,0,0,1707.0745494170005,,,,,,,,,,,,,,,1692.959137375,1692.9720449996669,1692.9758937920005,1703.5286814580004,1703.542096708,1703.5533317919999,1703.8012649170005,1703.8012649170005,1705.188473792,1706.2628439999999,10,1.607015292000142,1,[1.0872079170003417],[1.0872103749998132],,,,,,,1707.063283333,1707.0745494170005,1707.0745494170005,1737.0584532080002,she lives in greenwhich and goes shopping and ma,0,,,,,,,,,,,,,,,,,,,,,,,,1688.591814292,1688.6047138330005,1688.6047138330005,1688.6047138330005,1692.958832583,1,[4.365048083000147],[4.365054208000402],1706.2633422500003,1706.2716501250006,1707.0626862500003,1,[0.7988112499997442],[0.7988139580002098],1737.0773481249998,1737.0773481249998,,,,,p_7,001,2024-05-08_13h59.42.954,speech_rate,2023.2.3,None,2024-05-08 13h59.57.937066 -0700,
,Someday_14_condition-3x.wav,Someday__Someday__Maybe__Unabridged___File_009_of_116_2.wav,Jane grew up in Greenwich Village in Manhattan and has style Where I struggle to match a black shirt with black pants she throws on jeans and a t shirt and nine chunky cuffs on one wrist with an air that says so I dare you to not find this cool She shops at Century 21 and Boltons and second hand stores and somehow makes it all look expensive Wait Jane Levine you are not just getting home are you I ask peeking into one of the brown bags Can they do that to you,Where did Jane grow up in?,A. Williamsburg,B. Greenwich Village,C. SoHo,D. Queens,B. Greenwich Village,yes,10.56,,,,,,,,,,,,,0,27,27,27,0,0,0,0,,,,,,,,,,,,,,,,,,,,,,,,,,,,,,,,,,,,,,,,,,,,,,,,,,,,,,,,,,,,,,,,,,,,,,,,,,,,,,,,,,,,,,,,,,p_7,001,2024-05-08_13h59.42.954,speech_rate,2023.2.3,None,2024-05-08 13h59.57.937066 -0700,
