index,wav_file,old_name,segment_text,question,C1,C2,C3,C4,C_correct,summary,duration,training.thisRepN,training.thisTrialN,training.thisN,training.thisIndex,sum_true.thisRepN,sum_true.thisTrialN,sum_true.thisN,sum_true.thisIndex,dummy_loop.thisRepN,dummy_loop.thisTrialN,dummy_loop.thisN,dummy_loop.thisIndex,experiment.thisRepN,experiment.thisTrialN,experiment.thisN,experiment.thisIndex,sum_true_exp.thisRepN,sum_true_exp.thisTrialN,sum_true_exp.thisN,sum_true_exp.thisIndex,dummy_loop_exp.thisRepN,dummy_loop_exp.thisTrialN,dummy_loop_exp.thisN,dummy_loop_exp.thisIndex,thisRow.t,notes,Instructions.started,Instructions.stopped,Start_Segment_Train.started,Play_train.started,Trial_counter_train.started,text_5.started,Start_Segment_Train.stopped,Play_train.numClicks,Play_train.timesOn,Play_train.timesOff,Training_Segment.started,Experimen_audio.started,polygon.started,polygon.stopped,Training_Segment.stopped,Rating.started,slider.started,text_3.started,button_2.started,Rating.stopped,slider.response,slider.rt,button_2.numClicks,button_2.timesOn,button_2.timesOff,Start_Summary.started,text_2.started,Start_Summary.stopped,summary_button.numClicks,summary_button.timesOn,summary_button.timesOff,skip_button.numClicks,skip_button.timesOn,skip_button.timesOff,Summary.started,textbox.started,Summary.stopped,textbox.text,Multiple_Choice_2.started,Multiple_Choice_2.stopped,A.numClicks,A.timesOn,A.timesOff,B.numClicks,B.timesOn,B.timesOff,C.numClicks,C.timesOn,C.timesOff,D.numClicks,D.timesOn,D.timesOff,textbox.stopped,Start_Exp.started,Start_exp.started,Start.started,Start_Exp.stopped,Start.numClicks,Start.timesOn,Start.timesOff,Start_Segment.started,Play.started,Trial_counter.started,text_6.started,Start_Segment.stopped,Play.numClicks,Play.timesOn,Play.timesOff,Start_Sum_Exp.started,text_4.started,summary_button_exp.started,skip_button_exp.started,Start_Sum_Exp.stopped,summary_button_exp.numClicks,summary_button_exp.timesOn,summary_button_exp.timesOff,skip_button_exp.numClicks,skip_button_exp.timesOn,skip_button_exp.timesOff,participant,session,date,expName,psychopyVersion,frameRate,expStart,
1,Someday_trial_condition.wav,Someday__Someday__Maybe__Unabridged___File_069_of_116_3.wav,It's a gut feeling You can't nickname him He's a real person not a joke person You don't have to tell me Only a real person would try to shake hands with my best friend's foot Jane you're not explaining it right It was very romantic And thankfully our steaming bowl of bright yellow melted cheese with flecks of green chilies arrives Listen she says dipping a chip into the creamy depths You're the one with the brand new personality I'm still the same old Jane,"What does the narrator have, according to Jane?",A) A new recipe for dipping sauce,B) A new personality,C) A new restaurant suggestion,D) A new pair of shoes,B) A new personality,yes,30,0,0,0,0,0,0,0,0,0,0,0,0,,,,,,,,,,,,,112.51412054200046,,0.011836375000711996,10.281653041995014,10.290862666995963,10.306225374995847,10.306225374995847,10.306225374995847,24.929414250000264,1,[14.630946833996859],[14.630951833998552],24.929797833996417,24.979054166997958,24.98194274999696,54.99382829199749,54.964566249997006,54.98572620900086,55.21191833399644,55.21191833399644,109.60960529199656,110.57302016700123,10,54.59557749999658,1,[0.976136042001599],[0.9761390000057872],110.57463374999497,110.58202729199547,112.48493237499497,1,[1.909130667001591],[1.9091337920035585],0,,,112.48577141699934,112.51412054200046,127.4949050840005,Dip a chip into a b,,,,,,,,,,,,,,,,,,,,,,,,,,,,,,,,,,,,,,,,,,p_1,001,2024-03-08_12h32.06.988,speech_rate,2023.2.3,None,2024-03-08 12h36.04.945311 -0800,
1,Someday_trial_condition.wav,Someday__Someday__Maybe__Unabridged___File_069_of_116_3.wav,It's a gut feeling You can't nickname him He's a real person not a joke person You don't have to tell me Only a real person would try to shake hands with my best friend's foot Jane you're not explaining it right It was very romantic And thankfully our steaming bowl of bright yellow melted cheese with flecks of green chilies arrives Listen she says dipping a chip into the creamy depths You're the one with the brand new personality I'm still the same old Jane,"What does the narrator have, according to Jane?",A) A new recipe for dipping sauce,B) A new personality,C) A new restaurant suggestion,D) A new pair of shoes,B) A new personality,yes,30,0,0,0,0,0,0,0,0,,,,,,,,,,,,,,,,,,,,,,,,,,,,,,,,,,,,,,,,,,,,,,,,,,,,,,,,,,,,,,,,,,,,,,,,,,,,,,,,,,,,,,,,,,,,,,,,,,p_1,001,2024-03-08_12h32.06.988,speech_rate,2023.2.3,None,2024-03-08 12h36.04.945311 -0800,
1,Someday_trial_condition.wav,Someday__Someday__Maybe__Unabridged___File_069_of_116_3.wav,It's a gut feeling You can't nickname him He's a real person not a joke person You don't have to tell me Only a real person would try to shake hands with my best friend's foot Jane you're not explaining it right It was very romantic And thankfully our steaming bowl of bright yellow melted cheese with flecks of green chilies arrives Listen she says dipping a chip into the creamy depths You're the one with the brand new personality I'm still the same old Jane,"What does the narrator have, according to Jane?",A) A new recipe for dipping sauce,B) A new personality,C) A new restaurant suggestion,D) A new pair of shoes,B) A new personality,yes,30,0,0,0,0,,,,,,,,,,,,,,,,,,,,,,,,,,,,,,,,,,,,,,,,,,,,,,,,,,,,,,,,,,,,,127.49513920900063,181.72184091699455,1,54.208596167001815,54.20860099999845,0,,,0,,,0,,,,,,,,,,,,,,,,,,,,,,,,,,,,,,p_1,001,2024-03-08_12h32.06.988,speech_rate,2023.2.3,None,2024-03-08 12h36.04.945311 -0800,
2,Someday_trial_condition-4x.wav,Someday__Someday__Maybe__Unabridged___File_103_of_116_1.wav,Isn't halfway where two people usually meet Well in general maybe But tonight this is sort of a big deal for me It's my night I'm not sure you you don't think I get it Well no I mean how could you I'm having trouble making sense of this conversation James is speaking with authority but there's something wrong Something feels so wrong somehow I don't care about waving and smiling and having my picture taken with him,"How does James speak, according to the narrator?",A) With compassion,B) With grief,C) With hesitation,D) With authority,D) With authority,yes,7.5,0,1,1,1,0,0,0,0,0,0,0,0,,,,,,,,,,,,,196.2667486249993,,,,181.72254062499997,181.73059166700114,181.73059166700114,181.73059166700114,184.61980162499822,1,[2.8942163750034524],[2.8942195839990745],184.62002258400025,184.63567916666605,184.63362141700054,192.15394904199638,192.13299616699805,192.1442057919994,192.37517683400074,192.37517683400074,194.62604770899634,195.30378637499962,5.958333333333333,2.4500247500036494,1,[0.687560291000409],[0.6875625829998171],195.30430799999885,195.31468766699982,196.2564025419997,1,[0.9513975410009152],[0.9514001249990542],0,,,196.25727358400036,196.2667486249993,211.25070349999442,"something feels wrong, something feels so wrong somehow how could",,,,,,,,,,,,,,,211.2704309999972,,,,,,,,,,,,,,,,,,,,,,,,,,,p_1,001,2024-03-08_12h32.06.988,speech_rate,2023.2.3,None,2024-03-08 12h36.04.945311 -0800,
2,Someday_trial_condition-4x.wav,Someday__Someday__Maybe__Unabridged___File_103_of_116_1.wav,Isn't halfway where two people usually meet Well in general maybe But tonight this is sort of a big deal for me It's my night I'm not sure you you don't think I get it Well no I mean how could you I'm having trouble making sense of this conversation James is speaking with authority but there's something wrong Something feels so wrong somehow I don't care about waving and smiling and having my picture taken with him,"How does James speak, according to the narrator?",A) With compassion,B) With grief,C) With hesitation,D) With authority,D) With authority,yes,7.5,0,1,1,1,0,0,0,0,,,,,,,,,,,,,,,,,,,,,,,,,,,,,,,,,,,,,,,,,,,,,,,,,,,,,,,,,,,,,,,,,,,,,,,,,,,,,,,,,,,,,,,,,,,,,,,,,,p_1,001,2024-03-08_12h32.06.988,speech_rate,2023.2.3,None,2024-03-08 12h36.04.945311 -0800,
2,Someday_trial_condition-4x.wav,Someday__Someday__Maybe__Unabridged___File_103_of_116_1.wav,Isn't halfway where two people usually meet Well in general maybe But tonight this is sort of a big deal for me It's my night I'm not sure you you don't think I get it Well no I mean how could you I'm having trouble making sense of this conversation James is speaking with authority but there's something wrong Something feels so wrong somehow I don't care about waving and smiling and having my picture taken with him,"How does James speak, according to the narrator?",A) With compassion,B) With grief,C) With hesitation,D) With authority,D) With authority,yes,7.5,0,1,1,1,,,,,,,,,,,,,,,,,,,,,,,,,,,,,,,,,,,,,,,,,,,,,,,,,,,,,,,,,,,,,211.25099950000003,221.4237944169945,0,,,0,,,1,10.163151417000336,10.163154500005476,0,,,,,,,,,,,,,,,,,,,,,,,,,,,,,,p_1,001,2024-03-08_12h32.06.988,speech_rate,2023.2.3,None,2024-03-08 12h36.04.945311 -0800,
,Someday_118_condition-3x.wav,Someday__Someday__Maybe__Unabridged___File_053_of_116_0.wav,The stuff in the bowl I am holding must look as bad as I thought Wow look at you Where'd you get the boots Maybe I can distract her by talking about fashion Don't try to distract me by talking about fashion Seriously what is that It's uh food For an astronaut No it's this wonderful new diet food I bought it off the television I've been trying to keep my spirits up by experimenting with different diets So far none of them have worked,Why does the narrator ask about the boots?,A. To distract from the topic of food,B. To compliment the fashion sense,C. To mock the appearance,D. To change the subject to fashion,A. To distract from the topic of food,no,11.085,,,,,,,,,,,,,0,0,0,0,,,,,,,,,224.22403512500023,,,,,,,,,,,,264.626711334,264.6425124586642,264.64599433400144,275.7371681250006,275.73871079200035,275.7601157089957,276.0026511249962,276.0026511249962,277.8875477499969,278.61487216699607,8.016666666666667,2.101327541000501,1,[0.7368580000038492],[0.7368602920032572],,,,,,,,,,,,,,278.615578500001,289.01097874999687,1,10.385413749994768,10.385416749995784,0,,,0,,,0,,,,221.424188166995,221.43259141699673,221.43259141699673,224.15886595899792,1,[2.7338969170014025],[2.7339041250015725],224.21371516699583,224.22403512500023,224.22403512500023,224.22403512500023,264.62632587499684,1,[40.40946462500142],[40.40946737500053],,,,,,,,,,,,p_1,001,2024-03-08_12h32.06.988,speech_rate,2023.2.3,None,2024-03-08 12h36.04.945311 -0800,
,Someday_39_condition.wav,Someday__Someday__Maybe__Unabridged___File_021_of_116_1.wav,People who are admired for holding it together are not people who are about to get agents They're people who are recovering from cancer or undergoing a murder trial And I dropped a section I add hoping he'll say he didn't notice Yeah I know but I only know because I'm obsessed with that guy's work No one will dock you for that It's not exactly a glowing review but he doesn't seem totally horrified Still he's avoiding the thing I most want to know But when I fell I mean how bad was it,What does the narrator hope the person they are talking to will say?,A. That he didn't notice the mistake,B. That he noticed the dropped section,C. That he wants to be an agent,D. That he's obsessed with the narrator's work,A. That he didn't notice the mistake,no,29.17996875,,,,,,,,,,,,,0,1,1,1,,,,,,,,,289.01884283399704,,,,,,,,,,,,291.5594155840008,291.6082878339992,291.5999516669981,320.7789722919988,320.7904722499952,320.81220666699664,321.0124276669958,321.0124276669958,323.4165222090014,324.1503554999945,9.833333333333332,2.5792746670049382,1,[0.7432565419949242],[0.7432587919975049],,,,,,,,,,,,,,324.15084224999737,333.7138037920013,1,9.553006540998467,9.553009415998531,0,,,0,,,0,,,,,,,,,,,289.01201983400097,289.01884283399704,289.01884283399704,289.01884283399704,291.5591858339976,1,[2.5457505410013255],[2.545753541002341],,,,,,,,,,,,p_1,001,2024-03-08_12h32.06.988,speech_rate,2023.2.3,None,2024-03-08 12h36.04.945311 -0800,
,Someday_31_condition-2x.wav,Someday__Someday__Maybe__Unabridged___File_017_of_116_3.wav,Yeah and then I have stuff you know with all of my agents too I say hands flapping vaguely in the air Very cool Who are you with I realize I'm too exhausted to continue I'm with it's all in my head ink You're what Oh I get it You're kidding Ha Yes I'm kidding I'm currently between agents currently and formerly between them,What is the narrator's current agent situation?,A. She has one agent,B. She has no agents,C. She has more than two agents,D. She has two agents,B. She has no agents,no,13.51003125,,,,,,,,,,,,,0,2,2,2,,,,,,,,,333.7222315839972,,,,,,,,,,,,335.80972316699626,335.8402718753282,335.8329096249945,349.34103199999663,349.3586944589988,349.3809296670006,349.59393020899734,349.59393020899734,351.5518129999982,352.0963402089983,7.033333333333333,2.1435178340034327,1,[0.554393958998844],[0.5543963339951006],,,,,,,,,,,,,,352.0968103749983,365.63209866699617,0,,,1,13.526471415993,13.526474624995899,0,,,0,,,,,,,,,,,333.71426204199815,333.7222315839972,333.7222315839972,333.7222315839972,335.80893520899554,1,[2.0936589580014697],[2.0936713330011116],,,,,,,,,,,,p_1,001,2024-03-08_12h32.06.988,speech_rate,2023.2.3,None,2024-03-08 12h36.04.945311 -0800,
,Someday_23_condition-2-5x.wav,Someday__Someday__Maybe__Unabridged___File_014_of_116_0.wav,If you don't have any questions about the material then state your name and agency and go ahead whenever you're ready thanks so much I try to swallow but my throat is too dry This is the kind of room that's hard to do well in If they're in the mood to talk I can crack a few jokes make a small connection give myself a moment to settle down but these girls are all business I look down at the paper I'm not going to panic or ask for more time or tell them I didn't really have a chance to go over it yet I'm going to remain calm as if I'm a professional,How does the narrator plan to handle the situation in the room?,A. By making small talk and jokes,B. By panicking and asking for more time,C. By admitting she didn't prepare,D. By remaining calm and professional,D. By remaining calm and professional,no,12.81875,,,,,,,,,,,,,0,3,3,3,,,,,,,,,365.63990633399953,,,,,,,,,,,,367.73084687499795,367.746437750666,367.7495885419994,380.576288749995,380.5774071669948,380.59979100000055,380.8131591669953,380.8131591669953,383.3254139169949,384.1151740839996,8.091666666666667,2.694866500001808,1,[0.803184374999546],[0.8031867089957814],,,,,,,,,,,,,,384.11562179199973,392.5173518750016,0,,,0,,,0,,,1,8.39259504200163,8.392598375001398,,,,,,,,,365.63256720899517,365.63990633399953,365.63990633399953,365.63990633399953,367.7306192920005,1,[2.096750749995408],[2.0967539999983273],,,,,,,,,,,,p_1,001,2024-03-08_12h32.06.988,speech_rate,2023.2.3,None,2024-03-08 12h36.04.945311 -0800,
,Someday_10_condition-3x.wav,Someday__Someday__Maybe__Unabridged___File_008_of_116_2.wav,I've worn this combination so many times before that today my all black outfit feels a little boring a little blah What would Jane do I think to myself and pull a chunky brown leather belt from the top shelf of the closet slinging it low around my hips Finally taking weather and product into consideration I take the top part of my hair and tie it into a small black velvet scrunchie on top of my head The phone begins to ring from its place on the landing between my room and Jane's Hi Dad,What does the narrator wear to their class after the audition?,A. A black dress,B. A white t-shirt,C. A red skirt,D. A brown leather belt,D. A brown leather belt,no,10.8675,,,,,,,,,,,,,0,4,4,4,,,,,,,,,392.5248488340003,,,,,,,,,,,,394.95050441700005,394.9665635416643,394.966621749998,405.82787608399667,405.84535749999486,405.85657791699487,406.0634024999963,406.0634024999963,409.87793737500033,410.8725414169967,9.066666666666666,3.996594999996887,1,[1.0040962919956655],[1.0040990419947775],,,,,,,,,,,,,,410.8729715419977,417.4359779590013,0,,,1,6.554096791995107,6.554099999993923,0,,,0,,,,,,,,,,,392.51782204199844,392.5248488340003,392.5248488340003,392.5248488340003,394.95031174999895,1,[2.4306360420014244],[2.430638625002757],,,,,,,,,,,,p_1,001,2024-03-08_12h32.06.988,speech_rate,2023.2.3,None,2024-03-08 12h36.04.945311 -0800,
,Someday_142_condition-4x.wav,Someday__Someday__Maybe__Unabridged___File_088_of_116_2.wav,"Metro North is on strike. So I can't take the train I have no wallet. No driver's license. I can't pick up the rental car Two nights ago on the way home from James's I arrived at our front door Just as our downstairs neighbor was leaving and Dan and Jane were home with the door to our place already open So it wasn't until I went to get bagels the next morning that I realized in my rush to leave I forgot my purse at James's apartment. I left him a message, but he must have already taken off for Los Angeles",Where dd the narrator forget her purse?,A. In the subway,B. In James's apartment,C. In the acting school,D. In the cab,B. In James's apartment,yes,6.81178125,,,,,,,,,,,,,0,5,5,5,0,0,0,0,0,0,0,0,435.44667504199606,,,,,,,,,,,,418.6207169170011,418.63671983366316,418.6330685419962,425.4344624590012,425.44997099999455,425.4612054589961,425.6648256249973,425.6648256249973,432.6112532920015,433.16846924999845,5.108333333333333,7.122283000004245,1,[0.570109083004354],[0.5701113329996588],,,,,,,,,,435.4373137090006,435.44667504199606,450.4307762499957,in a rush to leave I grab my purse ,,,,,,,,,,,,,,,450.44995987499715,,,,,,,,417.4364466670013,417.4435134999949,417.4435134999949,417.4435134999949,418.620512417001,1,[1.1836537499984843],[1.183656291999796],433.16901649999636,433.17719720899913,433.17719720899913,433.17719720899913,435.43661212499865,1,[2.2663627919973806],[2.266366083000321],0,,,p_1,001,2024-03-08_12h32.06.988,speech_rate,2023.2.3,None,2024-03-08 12h36.04.945311 -0800,
,Someday_142_condition-4x.wav,Someday__Someday__Maybe__Unabridged___File_088_of_116_2.wav,"Metro North is on strike. So I can't take the train I have no wallet. No driver's license. I can't pick up the rental car Two nights ago on the way home from James's I arrived at our front door Just as our downstairs neighbor was leaving and Dan and Jane were home with the door to our place already open So it wasn't until I went to get bagels the next morning that I realized in my rush to leave I forgot my purse at James's apartment. I left him a message, but he must have already taken off for Los Angeles",Where dd the narrator forget her purse?,A. In the subway,B. In James's apartment,C. In the acting school,D. In the cab,B. In James's apartment,yes,6.81178125,,,,,,,,,,,,,0,5,5,5,0,0,0,0,,,,,,,,,,,,,,,,,,,,,,,,,,,,,,,,,,,,,,,,,,,,,,,,,,,,,,,,,,,,,,,,,,,,,,,,,,,,,,,,,,,,,,p_1,001,2024-03-08_12h32.06.988,speech_rate,2023.2.3,None,2024-03-08 12h36.04.945311 -0800,
,Someday_142_condition-4x.wav,Someday__Someday__Maybe__Unabridged___File_088_of_116_2.wav,"Metro North is on strike. So I can't take the train I have no wallet. No driver's license. I can't pick up the rental car Two nights ago on the way home from James's I arrived at our front door Just as our downstairs neighbor was leaving and Dan and Jane were home with the door to our place already open So it wasn't until I went to get bagels the next morning that I realized in my rush to leave I forgot my purse at James's apartment. I left him a message, but he must have already taken off for Los Angeles",Where dd the narrator forget her purse?,A. In the subway,B. In James's apartment,C. In the acting school,D. In the cab,B. In James's apartment,yes,6.81178125,,,,,,,,,,,,,0,5,5,5,,,,,,,,,,,,,,,,,,,,,,,,,,,,,,,,,,,,,,,,,,,,,,,,,450.43106912499934,454.9903574589989,0,,,1,4.550028958001349,4.550032499995723,0,,,0,,,,,,,,,,,,,,,,,,,,,,,,,,,,,,p_1,001,2024-03-08_12h32.06.988,speech_rate,2023.2.3,None,2024-03-08 12h36.04.945311 -0800,
,Someday_108_condition.wav,Someday__Someday__Maybe__Unabridged___File_048_of_116_1.wav,Clothes that have to be dry cleaned are already the most expensive clothes Then it's like they're charging you another 3 every time you wear them Regular clothes charge money to clean them if we're looking at it that way Regular laundry costs money too but not as much And you can do regular laundry yourself Dry cleaning is like the secret society you're not allowed into No matter what you're at their mercy You can have a PhD in anything but you still can't dry clean your own clothes They'll never tell you how No one's ever even seen what the machine looks like,What is the narrator's opinion about dry cleaning?,A. It's less expensive than regular laundry,B. It's a secret society with hidden machines,C. It's environmentally friendly,D. It's a simple and accessible process,B. It's a secret society with hidden machines,no,28.62003125,,,,,,,,,,,,,0,6,6,6,,,,,,,,,454.9987728749984,,,,,,,,,,,,456.35422008399473,456.3868682503312,456.3856604169996,484.9987003749993,485.0079130000013,485.02941391700006,485.26475308399677,485.26475308399677,487.29248508399905,488.3596915839953,10,2.2375614999982645,1,[1.077029207997839],[1.0770313749962952],,,,,,,,,,,,,,488.3601465419997,497.78993370899843,0,,,1,9.420133709005313,9.420136749999074,0,,,0,,,,,,,,,,,454.990911916997,454.9987728749984,454.9987728749984,454.9987728749984,456.3540232499945,1,[1.3610803339979611],[1.3610840839974117],,,,,,,,,,,,p_1,001,2024-03-08_12h32.06.988,speech_rate,2023.2.3,None,2024-03-08 12h36.04.945311 -0800,
,Someday_145_condition-2-5x.wav,Someday__Someday__Maybe__Unabridged___File_092_of_116_2.wav,"Actually, it's just Franny, I say, and my voice sounds strangely cold. Of course, so sorry, I knew that. I guess I'm a little nervous to finally meet you, she admits shyly, and my father gazes at her, delighted. Dinner arrives and I finally manage to sputter out a few sentences as I pick at my burger. The Finnegans always have a barbecue instead of a caterer, and usually I love how homey and informal and comforting the food is, but tonight I've lost my appetite.",What do the Finnegans prefer over a caterer?,A. A home cooked meal,B. Ordering take out,C. A potluck,D. A barbecue,D. A barbecue,yes,13.5599375,,,,,,,,,,,,,0,7,7,7,0,0,0,0,0,0,0,0,519.0353465419976,,,,,,,,,,,,498.78933583400067,498.8053610006648,498.8076405419997,512.3564044999948,512.367943917001,512.3783130000011,512.5874040419949,512.5874040419949,515.2663667499946,515.9904613339968,8.041666666666668,2.8604840420011897,1,[0.7362327500013635],[0.7362350830007927],,,,,,,,,,519.0256656669953,519.0353465419976,534.018802958999,"It's really nice to meet you Frannie she gazes at me but tonight ive lost my apettite
",,,,,,,,,,,,,,,534.0381564589989,,,,,,,,497.79042658399703,497.79742987499776,497.79742987499776,497.79742987499776,498.78914879199874,1,[0.9969667080004001],[0.9969696250045672],515.9910117920008,515.9996091249996,515.9996091249996,515.9996091249996,519.0248742089971,1,[3.0331274999989546],[3.033130750001874],0,,,p_1,001,2024-03-08_12h32.06.988,speech_rate,2023.2.3,None,2024-03-08 12h36.04.945311 -0800,
,Someday_145_condition-2-5x.wav,Someday__Someday__Maybe__Unabridged___File_092_of_116_2.wav,"Actually, it's just Franny, I say, and my voice sounds strangely cold. Of course, so sorry, I knew that. I guess I'm a little nervous to finally meet you, she admits shyly, and my father gazes at her, delighted. Dinner arrives and I finally manage to sputter out a few sentences as I pick at my burger. The Finnegans always have a barbecue instead of a caterer, and usually I love how homey and informal and comforting the food is, but tonight I've lost my appetite.",What do the Finnegans prefer over a caterer?,A. A home cooked meal,B. Ordering take out,C. A potluck,D. A barbecue,D. A barbecue,yes,13.5599375,,,,,,,,,,,,,0,7,7,7,0,0,0,0,,,,,,,,,,,,,,,,,,,,,,,,,,,,,,,,,,,,,,,,,,,,,,,,,,,,,,,,,,,,,,,,,,,,,,,,,,,,,,,,,,,,,,p_1,001,2024-03-08_12h32.06.988,speech_rate,2023.2.3,None,2024-03-08 12h36.04.945311 -0800,
,Someday_145_condition-2-5x.wav,Someday__Someday__Maybe__Unabridged___File_092_of_116_2.wav,"Actually, it's just Franny, I say, and my voice sounds strangely cold. Of course, so sorry, I knew that. I guess I'm a little nervous to finally meet you, she admits shyly, and my father gazes at her, delighted. Dinner arrives and I finally manage to sputter out a few sentences as I pick at my burger. The Finnegans always have a barbecue instead of a caterer, and usually I love how homey and informal and comforting the food is, but tonight I've lost my appetite.",What do the Finnegans prefer over a caterer?,A. A home cooked meal,B. Ordering take out,C. A potluck,D. A barbecue,D. A barbecue,yes,13.5599375,,,,,,,,,,,,,0,7,7,7,,,,,,,,,,,,,,,,,,,,,,,,,,,,,,,,,,,,,,,,,,,,,,,,,534.0190240000011,551.2097458339995,1,17.18112512499647,17.181127957999706,0,,,0,,,0,,,,,,,,,,,,,,,,,,,,,,,,,,,,,,p_1,001,2024-03-08_12h32.06.988,speech_rate,2023.2.3,None,2024-03-08 12h36.04.945311 -0800,
,Someday_64_condition.wav,Someday__Someday__Maybe__Unabridged___File_031_of_116_0.wav,The traffic isn't too bad yet and the sun is still low in the sky I pass a few trucks parked on 72nd flanked by orange cones and signs stapled to the electrical poles that say no parking permit to film This must be the shoot my shoot A stocky girl is standing on the corner by the trucks wearing a giant fur hat with ear flaps and speaking into a walkie talkie Hi excuse me I say What is this for Mayonnaise commercial she says gruffly I'm in the wrong place,What is happening on 72nd street?,A. A traffic jam,B. A film shoot,C. A parade,D. A protest,B. A film shoot,no,28.75996875,,,,,,,,,,,,,0,8,8,8,,,,,,,,,551.2178449169951,,,,,,,,,,,,552.2950469999996,552.3277115833339,552.3255641249998,581.0740541249979,581.0884549170005,581.110114916999,581.3415401249949,581.3415401249949,582.7863388749975,583.3592942499963,9.925,1.6361954159947345,1,[0.5981895419972716],[0.5981919170008041],,,,,,,,,,,,,,583.3597265839999,586.1716976249954,0,,,1,2.8044439169971156,2.804447333997814,0,,,0,,,,,,,,,,,551.2102082089987,551.2178449169951,551.2178449169951,551.2178449169951,552.2948469170005,1,[1.0842165409994777],[1.084219165997638],,,,,,,,,,,,p_1,001,2024-03-08_12h32.06.988,speech_rate,2023.2.3,None,2024-03-08 12h36.04.945311 -0800,
,Someday_19_condition-3x.wav,Someday__Someday__Maybe__Unabridged___File_012_of_116_0.wav,No I'll push it his sister says giving him a little shove It's my callback The little boy shrinks back from the elevator buttons and I smile sympathetically at their mom but she seems mesmerized by a spot somewhere north of the top of my head so I decide to take a sudden interest in the laces of my shoes and endure the rest of the long creaky ride in silence Even in the best of elevators I think there's no place where time passes so slowly,Where is the narrator?,A. In an audition,B. In a kindergarden,C. In an elevator,D. In a parents meeting,C. In an elevator,no,10.46625,,,,,,,,,,,,,0,9,9,9,,,,,,,,,586.1796487920001,,,,,,,,,,,,587.9115392919994,587.9275857086652,587.9273660839972,598.3886981670003,598.4063510839987,598.4274299999961,598.6297588749949,598.6297588749949,602.154010667,602.8440785839994,7.958333333333333,3.6982160420011496,1,[0.6996447080018697],[0.6996470000012778],,,,,,,,,,,,,,602.8445287499999,608.6129981669947,0,,,0,,,1,5.761141208000481,5.761144167001476,0,,,,,,,,,,,586.1722426669949,586.1796487920001,586.1796487920001,586.1796487920001,587.9113452919992,1,[1.7372084590024315],[1.7372115000034682],,,,,,,,,,,,p_1,001,2024-03-08_12h32.06.988,speech_rate,2023.2.3,None,2024-03-08 12h36.04.945311 -0800,
,Someday_110_condition-3x.wav,Someday__Someday__Maybe__Unabridged___File_048_of_116_3.wav,But still the dry cleaners own you You're at their mercy Clothes that have to be dry cleaned look down on you Is it the clothes who are to blame or the dry cleaning professionals themselves Chicken or the egg my friend This new dry cleaning conspiracy theory reminds me of your fear of ironing This is nothing like my fear of ironing Although ironing is another secret society that doesn't want you to know what's up Do you know anyone who can tell you why the ironing board is shaped that way How does it help me that it's the size of a surfboard,What is the dry cleaning conspiracy theory being compared to?,A. A fear of ironing,B. The shape of an ironing board,C. A secret society,D. A surfboard,A. A fear of ironing,no,10.65,,,,,,,,,,,,,0,10,10,10,,,,,,,,,608.6204605839957,,,,,,,,,,,,609.8126297089984,609.8286794166672,609.8286866249982,620.4731376249983,620.4792499589967,620.490403333999,620.6929267919986,620.6929267919986,624.4328919589971,624.9119524999987,6.758333333333334,3.915794125001412,1,[0.4884125840035267],[0.4884148749988526],,,,,,,,,,,,,,624.9123645,629.5809882920003,0,,,1,4.660785166001006,4.660789000001387,0,,,0,,,,,,,,,,,608.613472416997,608.6204605839957,608.6204605839957,608.6204605839957,609.8124457500016,1,[1.1972172079986194],[1.1972204170015175],,,,,,,,,,,,p_1,001,2024-03-08_12h32.06.988,speech_rate,2023.2.3,None,2024-03-08 12h36.04.945311 -0800,
,Someday_42_condition-2x.wav,Someday__Someday__Maybe__Unabridged___File_023_of_116_0.wav,There will be another showcase next year but my deadline expires way before then and I refuse to break it I refuse to become one of those people who can't accept the truth that it just isn't going to happen for them Something cold grabs my heart and my mouth falls open Maybe I've already become one of them while I wasn't looking Maybe I can't accept the truth that it just isn't going to happen for me Maybe I already know but I can't admit it How many more days of waiting do I really need before I have to face facts,When will be the next showcase?,A. Next year,B. Next month,C. Next week,D. Next fall,A. Next year,no,14.73996875,,,,,,,,,,,,,0,11,11,11,,,,,,,,,629.5894172920016,,,,,,,,,,,,631.0972263340009,631.1299604583332,631.1188798340008,645.8582653749982,645.8757272090006,645.8869817499944,646.0941540839995,646.0941540839995,648.0919392919968,648.653024166997,10,2.1798086669950862,1,[0.5710143340038485],[0.5710165839991532],,,,,,,,,,,,,,648.6534316249963,654.2825547920002,0,,,1,5.62143529199966,5.6214385830026,0,,,0,,,,,,,,,,,629.5814566249974,629.5894172920016,629.5894172920016,629.5894172920016,631.0970529589977,1,[1.5151949589999276],[1.5151975839980878],,,,,,,,,,,,p_1,001,2024-03-08_12h32.06.988,speech_rate,2023.2.3,None,2024-03-08 12h36.04.945311 -0800,
,Someday_114_condition-4x.wav,Someday__Someday__Maybe__Unabridged___File_051_of_116_0.wav,You know in general for show business I think that's why I'm not getting any calls from the agency What do you think is the right way to look You know more like these girls on still nursing I gesture toward the television where a buxom blonde in a short skirt and open doctor's coat is struggling to reattach the IV of an elderly male patient by straddling his hospital bed accidentally smothering him with her cleavage The studio audience screams with laughter,What TV show does the narrator reference in their conversation about appearances?,A. A cooking show,B. A crime show,C. A sitcom called "Still Nursing",D. A reality show,C. A sitcom called "Still Nursing",no,7.17,,,,,,,,,,,,,0,12,12,12,,,,,,,,,654.2897229169976,,,,,,,,,,,,656.0503239999962,656.0663783756647,656.0631224169992,663.2423883750016,663.2435805839996,663.2548266669983,663.4621806249997,663.4621806249997,667.3079718750014,667.8648712499999,4.466666666666667,4.012912333004351,1,[0.5819944169998053],[0.5819967080024071],,,,,,,,,,,,,,667.8652967499947,675.1866709589958,0,,,1,7.312240416002169,7.312243833002867,0,,,0,,,,,,,,,,,654.2830267499958,654.2897229169976,654.2897229169976,654.2897229169976,656.0501410840006,1,[1.7654174999988754],[1.7654206250008428],,,,,,,,,,,,p_1,001,2024-03-08_12h32.06.988,speech_rate,2023.2.3,None,2024-03-08 12h36.04.945311 -0800,
,Someday_143_condition-2x.wav,Someday__Someday__Maybe__Unabridged___File_088_of_116_3.wav,I know maybe I can give you my ID and you can pretend to be me Good thinking where can I get colored contacts and all of complexion and darker straighter hair in about an hour? I'm just brainstorming here. It's fine. Forget it. I just won't go But it feels terrible to even speak that possibility out loud. I've never missed a Finnegan wedding I haven't seen my dad in months haven't even really spoken to him His messages have had a strange sound to them lately. I think he's lonely. I can rent the car.,What does the narrator think about her father?,A. He is sad,B. He is lonely,C. He is cheerful,D. He is proud,B. He is lonely,yes,15.45775,,,,,,,,,,,,,0,13,13,13,0,0,0,0,0,0,0,0,698.0123352090013,,,,,,,,,,,,675.7496273750003,675.7823232923333,675.7710603749947,691.2440592499988,691.2459874169945,691.2680194169952,691.4804416670013,691.4804416670013,694.2450335419999,695.0387303749958,8.058333333333334,2.952044334000675,1,[0.803459999995539],[0.8034624590000021],,,,,,,,,,698.0028219999949,698.0123352090013,712.9957848339982,Maybe you could go instead of me but ive never missed a finneagn weddin,,,,,,,,,,,,,,,713.0135940420005,,,,,,,,675.1872290839965,675.1948856669987,675.1948856669987,675.1948856669987,675.7494367089967,1,[0.5599168749977252],[0.5599198749987409],695.0392890000003,695.0448155839986,695.0448155839986,695.0448155839986,698.0019327499976,1,[2.96190737500001],[2.9619099580013426],0,,,p_1,001,2024-03-08_12h32.06.988,speech_rate,2023.2.3,None,2024-03-08 12h36.04.945311 -0800,
,Someday_143_condition-2x.wav,Someday__Someday__Maybe__Unabridged___File_088_of_116_3.wav,I know maybe I can give you my ID and you can pretend to be me Good thinking where can I get colored contacts and all of complexion and darker straighter hair in about an hour? I'm just brainstorming here. It's fine. Forget it. I just won't go But it feels terrible to even speak that possibility out loud. I've never missed a Finnegan wedding I haven't seen my dad in months haven't even really spoken to him His messages have had a strange sound to them lately. I think he's lonely. I can rent the car.,What does the narrator think about her father?,A. He is sad,B. He is lonely,C. He is cheerful,D. He is proud,B. He is lonely,yes,15.45775,,,,,,,,,,,,,0,13,13,13,0,0,0,0,,,,,,,,,,,,,,,,,,,,,,,,,,,,,,,,,,,,,,,,,,,,,,,,,,,,,,,,,,,,,,,,,,,,,,,,,,,,,,,,,,,,,,p_1,001,2024-03-08_12h32.06.988,speech_rate,2023.2.3,None,2024-03-08 12h36.04.945311 -0800,
,Someday_143_condition-2x.wav,Someday__Someday__Maybe__Unabridged___File_088_of_116_3.wav,I know maybe I can give you my ID and you can pretend to be me Good thinking where can I get colored contacts and all of complexion and darker straighter hair in about an hour? I'm just brainstorming here. It's fine. Forget it. I just won't go But it feels terrible to even speak that possibility out loud. I've never missed a Finnegan wedding I haven't seen my dad in months haven't even really spoken to him His messages have had a strange sound to them lately. I think he's lonely. I can rent the car.,What does the narrator think about her father?,A. He is sad,B. He is lonely,C. He is cheerful,D. He is proud,B. He is lonely,yes,15.45775,,,,,,,,,,,,,0,13,13,13,,,,,,,,,,,,,,,,,,,,,,,,,,,,,,,,,,,,,,,,,,,,,,,,,712.9960182089999,715.9892120840013,0,,,1,2.9851692080046632,2.9851727500063134,0,,,0,,,,,,,,,,,,,,,,,,,,,,,,,,,,,,p_1,001,2024-03-08_12h32.06.988,speech_rate,2023.2.3,None,2024-03-08 12h36.04.945311 -0800,
,Someday_97_condition-2x.wav,Someday__Someday__Maybe__Unabridged___File_043_of_116_0.wav,Yes Aren't you going to ask me about my show What Yes I'm sorry tell me Well I'm pretty excited actually I just got booked to do my one man show Insights in the basement of Hooligans Hooligans that's great Where is that again You know the Irish bar on Second Avenue it has the basement where Claudia did her poetry reading Oh yeah that Hooligans yeah such a great space,Where will the one-man show be performed?,A. In a theater on Broadway,B. In the basement of an Irish bar,C. At Claudia's poetry reading,D. In a small town in Connecticut,B. In the basement of an Irish bar,no,14.39996875,,,,,,,,,,,,,0,14,14,14,,,,,,,,,715.996322250001,,,,,,,,,,,,716.9521552919978,716.9681957506657,716.9706811249998,731.3625161669988,731.3691021669947,731.3896137499978,731.6297583749983,731.6297583749983,734.9953572089944,736.5072447499988,9.850000000000001,3.5793421249982202,1,[1.523094415999367],[1.523096707998775],,,,,,,,,,,,,,736.5076711669972,739.383399624996,0,,,1,2.867293208000774,2.867296999997052,0,,,0,,,,,,,,,,,715.9897593339992,715.996322250001,715.996322250001,715.996322250001,716.9519729589956,1,[0.961748792004073],[0.9617515000063577],,,,,,,,,,,,p_1,001,2024-03-08_12h32.06.988,speech_rate,2023.2.3,None,2024-03-08 12h36.04.945311 -0800,
,Someday_41_condition-3x.wav,Someday__Someday__Maybe__Unabridged___File_022_of_116_0.wav,And even if I give it more thought and someday decide I'm very definitely against wearing the same animal that brings Easter baskets to little children it's not really like me to judge someone else for her rabbit related choices Penelope's face falls and she looks down at her jacket You know she says it is real I wasn't sure about it myself but it was my mother's and so I figured it's vintage She trails off and absently runs her fingers over the silky white collar,What does Penelope say about her rabbit fur jacket?,A. It's fake,B. It's vintage,C. It's for Easter,D. It's her sister's,B. It's vintage,no,10.8075,,,,,,,,,,,,,0,15,15,15,,,,,,,,,739.3963503339983,,,,,,,,,,,,740.2367908749948,740.2528291666642,740.255532833995,751.0533092499973,751.0651849169953,751.0764088340002,751.2841219170004,751.2841219170004,753.6632410419988,754.2204249589995,7.824999999999999,2.558171791002678,1,[0.5702518750040326],[0.5702549999987241],,,,,,,,,,,,,,754.2208368339998,756.8551445419944,0,,,1,2.6261696250003297,2.6261725000003935,0,,,0,,,,,,,,,,,739.3839832919984,739.3963503339983,739.3963503339983,739.3963503339983,740.2366050419951,1,[0.8510161250014789],[0.8510192090034252],,,,,,,,,,,,p_1,001,2024-03-08_12h32.06.988,speech_rate,2023.2.3,None,2024-03-08 12h36.04.945311 -0800,
,Someday_75_condition-2-5x.wav,Someday__Someday__Maybe__Unabridged___File_035_of_116_3.wav,He doesn't have the greatest sense of his own volume He never raises his voice to people intentionally but he's always loud He says volume is his trademark and the community respects him for it Francis Banks he says again Great name a classic You can bank on banks I can see the headline in the Hollywood Reporter He takes a deep rattly breath which he seems to have to do any time he strings more than two sentences together His breathing is labored and like his voice astonishingly loud A classy name for a classy gal Look at you,How is Barney Sparks' sense of volume described?,A. Quiet and reserved,B. Loud and unintentional,C. Moderate and controlled,D. Variable and unpredictable,B. Loud and unintentional,no,14.249375,,,,,,,,,,,,,0,16,16,16,,,,,,,,,756.8622927089964,,,,,,,,,,,,757.7397459169952,757.7557234586677,757.7593308340001,772.015156083995,772.0163371669987,772.027545166995,772.2348935420014,772.2348935420014,776.1663035839956,776.7702871669972,9.058333333333334,4.114647458001855,1,[0.6127247080003144],[0.6127268749987707],,,,,,,,,,,,,,776.770699834,780.1067363339971,0,,,1,3.3267410830012523,3.3267439160044887,0,,,0,,,,,,,,,,,756.8556191249954,756.8622927089964,756.8622927089964,756.8622927089964,757.7395601669996,1,[0.8825760420004372],[0.8825791249983013],,,,,,,,,,,,p_1,001,2024-03-08_12h32.06.988,speech_rate,2023.2.3,None,2024-03-08 12h36.04.945311 -0800,
,Someday_12_condition-2-5x.wav,Someday__Someday__Maybe__Unabridged___File_008_of_116_4.wav,Of course the wedding's not until June but if you wanna stay at the Sands by the shore she said to book early Okay thanks Franny I'm worried about you Why Well from my initial calculations this new telephone identification system could save you upwards of 20 to 25 seconds per day I'm concerned about how you'll adjust to all the new free time Har har Also one of my students says there's a show called Friends Apparently it's a popular one Maybe you should try to apply for that,What does the narrator's father joke about regarding caller ID?,A. The invention of the telephone,B. The inconvenience of caller ID,C. The potential time saved with caller ID,D. The popularity of caller ID,C. The potential time saved with caller ID,no,13.0025,,,,,,,,,,,,,0,17,17,17,,,,,,,,,780.1143415839979,,,,,,,,,,,,780.8890746670004,780.9050855006683,780.9076481250013,793.9056480419968,793.9089569589996,793.920188541997,794.1250403749946,794.1250403749946,796.0713545420003,796.8944026249956,8.016666666666667,2.126902500000142,1,[0.8322590829993715],[0.8322618329984834],,,,,,,,,,,,,,796.8948417089996,804.807077958998,0,,,0,,,1,7.90320800000336,7.903211000004376,0,,,,,,,,,,,780.1071634589971,780.1143415839979,780.1143415839979,780.1143415839979,780.8888990419946,1,[0.7813153329989291],[0.7813179579970893],,,,,,,,,,,,p_1,001,2024-03-08_12h32.06.988,speech_rate,2023.2.3,None,2024-03-08 12h36.04.945311 -0800,
,Someday_104_condition-2-5x.wav,Someday__Someday__Maybe__Unabridged___File_047_of_116_0.wav,Do you feel good about it I'm not sure I think so The audience laughed Lots of people said I did well But I have no idea who any of them were or if they were the ones I needed to impress But the laughing thing was getting such a positive reaction from the audience The writer decided to give me a line Jane's eyes go wide No way I know I got really excited too Which is so dumb when you think about it I've done whole plays in summer stock and all those scenes in class,What positive outcome does the narrator mention regarding her audition?,A. The writer decided to give her a line,B. Jane was impressed with her performance,C. She received a standing ovation,D. She secured a lead role in the play,A. The writer decided to give her a line,no,12.788125,,,,,,,,,,,,,0,18,18,18,,,,,,,,,804.8155761669987,,,,,,,,,,,,806.5423811669971,806.5584225006644,806.5602261669992,819.3398718339959,819.3521174999987,819.3633680419953,819.5711834589965,819.5711834589965,821.5872420000014,822.1294536249989,8.541666666666668,2.1981334579977556,1,[0.5520722079963889],[0.552076207997743],,,,,,,,,,,,,,822.1299007089983,826.4759623749997,1,4.336859999995795,4.33686270799808,0,,,0,,,0,,,,,,,,,,,804.8075359590002,804.8155761669987,804.8155761669987,804.8155761669987,806.5421938750005,1,[1.7333571249982924],[1.733359666999604],,,,,,,,,,,,p_1,001,2024-03-08_12h32.06.988,speech_rate,2023.2.3,None,2024-03-08 12h36.04.945311 -0800,
,Someday_47_condition-2x.wav,Someday__Someday__Maybe__Unabridged___File_024_of_116_3.wav,I almost feel as though I belong in this crowd tonight or that it's possible I could someday Absolute agency You're kidding me Look at you Dina hugs me hard when I tell her the news her perfectly polished red nails squeezing my arms Rockstar And another agency called Sparks Sparks That's Barney Sparks It's just him He's the whole office He's great He's been around a long time Dina holds her wine glass up already half empty and smiles,What does Dina do when the narrator tells her the news?,A. She hugs her,B. She shakes her hand,C. She kisses her,D. She cheers for her,A. She hugs her,no,15.03,,,,,,,,,,,,,0,19,19,19,,,,,,,,,826.4829429589954,,,,,,,,,,,,827.8401981669958,827.8724451253297,827.8625431249966,842.8861174589983,842.9035042920004,842.925738209,843.1395506249974,843.1395506249974,845.3026677499947,845.9935913340014,8.833333333333332,2.352282332998584,1,[0.70027462500002],[0.7002768750026007],,,,,,,,,,,,,,845.9940093339974,849.5938510419946,1,3.5923542080054176,3.5923571250023087,0,,,0,,,0,,,,,,,,,,,826.4763999169954,826.4829429589954,826.4829429589954,826.4829429589954,827.8399872919981,1,[1.3621560419996968],[1.3621593339994433],,,,,,,,,,,,p_1,001,2024-03-08_12h32.06.988,speech_rate,2023.2.3,None,2024-03-08 12h36.04.945311 -0800,
,Someday_25_condition-3-5x.wav,Someday__Someday__Maybe__Unabridged___File_015_of_116_1.wav,Yeah and could you maybe put your hair in a ponytail Yeah I'm even less sure of what I did the second time but the stick straights laugh again anyway I think a hair is funnier down don't you One of them says to the other who nods vigorously back As I leave the room I stuff the paper with the copy on it in my bag even though you're not supposed to take it with you and bolt for the elevator I walk a few blocks and I'm not sure what direction I'm so excited that they seem to like me that I'm dizzy and disoriented,What do the casting directors suggest regarding the narrator's hair?,A. They ask her to wear it down,B. They ask her to put it in a ponytail,C. They don't mention her hair,D. They suggest she wears a wig,B. They ask her to put it in a ponytail,yes,8.996875,,,,,,,,,,,,,0,20,20,20,0,0,0,0,0,0,0,0,865.4536790419952,,,,,,,,,,,,850.6248200420014,850.6404487916627,850.638861374995,859.6371660000004,859.638619583995,859.6498631669965,859.8572252919985,859.8572252919985,862.6191012499985,863.9826399169979,4.1,3.6063706670029205,1,[1.3769213750056224],[1.3769237080050516],,,,,,,,,,865.4284307499984,865.4536790419952,880.4378357499954,yhey seem to like me but im busy and disoriented not sure what to do,,,,,,,,,,,,,,,,,,,,,,,849.5942738339945,849.6015887089961,849.6015887089961,849.6015887089961,850.6246050420013,1,[1.0299349580018315],[1.0299375829999917],863.983167458995,863.9886043750012,863.9886043750012,863.9886043750012,865.4276642499972,1,[1.443766208998568],[1.4437687089957763],0,,,p_1,001,2024-03-08_12h32.06.988,speech_rate,2023.2.3,None,2024-03-08 12h36.04.945311 -0800,
,Someday_25_condition-3-5x.wav,Someday__Someday__Maybe__Unabridged___File_015_of_116_1.wav,Yeah and could you maybe put your hair in a ponytail Yeah I'm even less sure of what I did the second time but the stick straights laugh again anyway I think a hair is funnier down don't you One of them says to the other who nods vigorously back As I leave the room I stuff the paper with the copy on it in my bag even though you're not supposed to take it with you and bolt for the elevator I walk a few blocks and I'm not sure what direction I'm so excited that they seem to like me that I'm dizzy and disoriented,What do the casting directors suggest regarding the narrator's hair?,A. They ask her to wear it down,B. They ask her to put it in a ponytail,C. They don't mention her hair,D. They suggest she wears a wig,B. They ask her to put it in a ponytail,yes,8.996875,,,,,,,,,,,,,0,20,20,20,0,0,0,0,,,,,,,,,,,,,,,,,,,,,,,,,,,,,,,,,,,,,,,,,,,,,,,,,,,,,,,,,,,,,,,,,,,,,,,,,,,,,,,,,,,,,,p_1,001,2024-03-08_12h32.06.988,speech_rate,2023.2.3,None,2024-03-08 12h36.04.945311 -0800,
,Someday_25_condition-3-5x.wav,Someday__Someday__Maybe__Unabridged___File_015_of_116_1.wav,Yeah and could you maybe put your hair in a ponytail Yeah I'm even less sure of what I did the second time but the stick straights laugh again anyway I think a hair is funnier down don't you One of them says to the other who nods vigorously back As I leave the room I stuff the paper with the copy on it in my bag even though you're not supposed to take it with you and bolt for the elevator I walk a few blocks and I'm not sure what direction I'm so excited that they seem to like me that I'm dizzy and disoriented,What do the casting directors suggest regarding the narrator's hair?,A. They ask her to wear it down,B. They ask her to put it in a ponytail,C. They don't mention her hair,D. They suggest she wears a wig,B. They ask her to put it in a ponytail,yes,8.996875,,,,,,,,,,,,,0,20,20,20,,,,,,,,,,,,,,,,,,,,,,,,,,,,,,,,,,,,,,,,,,,,,,,,,880.4380264169959,885.7578232089945,0,,,1,5.310005208004441,5.310008790998836,0,,,0,,,,,,,,,,,,,,,,,,,,,,,,,,,,,,p_1,001,2024-03-08_12h32.06.988,speech_rate,2023.2.3,None,2024-03-08 12h36.04.945311 -0800,
,Someday_130_condition-2-5x.wav,Someday__Someday__Maybe__Unabridged___File_057_of_116_2.wav,Are you sure you're here for Ebony Breeze perfume What Oh no I'm here for Pine Tree Lodge I thought so You're on the wrong floor P L is on 34 one more up Oh oh thank God I sputter I mean I didn't I got out too I was confused because I gesture helplessly to the room behind me,What mistake does the narrator realize she has made?,A. Coming to the wrong appointment for a perfume,B. Misunderstanding the product she is endorsing,C. Being on the incorrect floor for her intended destination,D. Forgetting the name of the perfume she is promoting,C. Being on the incorrect floor for her intended destination,yes,12.75515625,,,,,,,,,,,,,0,21,21,21,0,0,0,0,0,0,0,0,903.4065567500002,,,,,,,,,,,,886.7286069170004,886.7446501256675,886.7464839589957,899.4955229170009,899.5075330839973,899.5187914999988,899.7539264590014,899.7539264590014,901.1433824999986,901.7343861249974,7.758333333333334,1.6006662500003586,1,[0.6002667919965461],[0.600268916998175],,,,,,,,,,903.3972053339967,903.4065567500002,918.3909027089976,"Are you here for ebony's perfume? no? i thought so, you should be upstairs oh i was confused, i gesture",,,,,,,,,,,,,,,918.4125361249971,,,,,,,,885.7584096669962,885.7713933339983,885.7713933339983,885.7713933339983,886.7284274170015,1,[0.9684215829984169],[0.9684252079969156],901.7348602499987,901.7406685419992,901.7406685419992,901.7406685419992,903.3964536669955,1,[1.6608564170019235],[1.660859083996911],0,,,p_1,001,2024-03-08_12h32.06.988,speech_rate,2023.2.3,None,2024-03-08 12h36.04.945311 -0800,
,Someday_130_condition-2-5x.wav,Someday__Someday__Maybe__Unabridged___File_057_of_116_2.wav,Are you sure you're here for Ebony Breeze perfume What Oh no I'm here for Pine Tree Lodge I thought so You're on the wrong floor P L is on 34 one more up Oh oh thank God I sputter I mean I didn't I got out too I was confused because I gesture helplessly to the room behind me,What mistake does the narrator realize she has made?,A. Coming to the wrong appointment for a perfume,B. Misunderstanding the product she is endorsing,C. Being on the incorrect floor for her intended destination,D. Forgetting the name of the perfume she is promoting,C. Being on the incorrect floor for her intended destination,yes,12.75515625,,,,,,,,,,,,,0,21,21,21,0,0,0,0,,,,,,,,,,,,,,,,,,,,,,,,,,,,,,,,,,,,,,,,,,,,,,,,,,,,,,,,,,,,,,,,,,,,,,,,,,,,,,,,,,,,,,p_1,001,2024-03-08_12h32.06.988,speech_rate,2023.2.3,None,2024-03-08 12h36.04.945311 -0800,
,Someday_130_condition-2-5x.wav,Someday__Someday__Maybe__Unabridged___File_057_of_116_2.wav,Are you sure you're here for Ebony Breeze perfume What Oh no I'm here for Pine Tree Lodge I thought so You're on the wrong floor P L is on 34 one more up Oh oh thank God I sputter I mean I didn't I got out too I was confused because I gesture helplessly to the room behind me,What mistake does the narrator realize she has made?,A. Coming to the wrong appointment for a perfume,B. Misunderstanding the product she is endorsing,C. Being on the incorrect floor for her intended destination,D. Forgetting the name of the perfume she is promoting,C. Being on the incorrect floor for her intended destination,yes,12.75515625,,,,,,,,,,,,,0,21,21,21,,,,,,,,,,,,,,,,,,,,,,,,,,,,,,,,,,,,,,,,,,,,,,,,,918.3911314590005,924.5007197919986,0,,,0,,,1,6.097948250004265,6.097951791001833,0,,,,,,,,,,,,,,,,,,,,,,,,,,,,,,p_1,001,2024-03-08_12h32.06.988,speech_rate,2023.2.3,None,2024-03-08 12h36.04.945311 -0800,
,Someday_85_condition-4x.wav,Someday__Someday__Maybe__Unabridged___File_038_of_116_1.wav,He hands me a paper badge with my name printed on it and says Yes it's okay for me to go up The elevator empties out around the 20th floor so I quickly try to use the smoked mirror walls to check my face and hair and outfit I'm wearing my black stretchy turtleneck with my black wool mini skirt black tights and Doc Martens lace up boots And now I can see in the reflection in the elevator mirror that the skirt is too short I try to pull it down but then my sweater isn't long enough and if I pull the skirt down to where it looks better an inch of my stomach shows,What does the narrator realize about her outfit when she checks her reflection?,A. Her turtleneck is too tight,B. Her boots don't match,C. Her skirt is too short,D. Her hair is a mess,C. Her skirt is too short,no,7.515,,,,,,,,,,,,,0,22,22,22,,,,,,,,,924.5090735839985,,,,,,,,,,,,925.2819716669983,925.2979602506641,925.2972502089979,932.8245706669986,932.8265657090014,932.837817833999,933.0734529999972,933.0734529999972,936.075050499996,936.546398874998,4.475,3.2100468749995343,1,[0.4809219579983619],[0.4809242080009426],,,,,,,,,,,,,,936.546828999999,943.8825049590014,0,,,0,,,1,7.32760099999723,7.327604208003322,0,,,,,,,,,,,924.5012671250006,924.5090735839985,924.5090735839985,924.5090735839985,925.2817893339961,1,[0.7788721670003724],[0.7788752920023398],,,,,,,,,,,,p_1,001,2024-03-08_12h32.06.988,speech_rate,2023.2.3,None,2024-03-08 12h36.04.945311 -0800,
,Someday_129_condition-2x.wav,Someday__Someday__Maybe__Unabridged___File_057_of_116_1.wav,My heart is pounding so hard that I feel a little dizzy and I'm so shaky that it takes all my effort to push open the massive door There's a large receptionist's desk behind which sits a pale young man wearing a tie his thin face almost buried behind several stacks of scripts and a giant bouquet of flowers A clipboard faces out on his desk with the words sign in written in bold letters at the top and I go straight for it not wanting to look hesitant or inexperienced,What does the narrator find on the receptionist's desk?,A. A bouquet of flowers,B. A stack of scripts,C. A clipboard with a "sign in" sheet,D. All of the above,D. All of the above,yes,14.7283125,,,,,,,,,,,,,0,23,23,23,0,0,0,0,0,0,0,0,969.6103069589954,,,,,,,,,,,,944.4147858750002,944.4307942916678,944.4343021249952,959.1926848340008,959.1628854999944,959.1845135420008,959.3963927919976,959.3963927919976,967.3585462499977,967.9708338749988,9.0,8.1341044159999,1,[0.6375241249988903],[0.637526375001471],,,,,,,,,,969.601310041995,969.6103069589954,984.5941322090002,theres a clipboard on the desk when the man is sitting and i go straight for it not wanting to look hesit,,,,,,,,,,,,,,,984.6137026669967,,,,,,,,943.8829537089987,943.8903142089985,943.8903142089985,943.8903142089985,944.4146120000005,1,[0.5312611669942271],[0.5312636249946081],967.9713147919974,967.9770052089953,967.9770052089953,967.9770052089953,969.6005633339955,1,[1.6284883330008597],[1.6284909579990199],0,,,p_1,001,2024-03-08_12h32.06.988,speech_rate,2023.2.3,None,2024-03-08 12h36.04.945311 -0800,
,Someday_129_condition-2x.wav,Someday__Someday__Maybe__Unabridged___File_057_of_116_1.wav,My heart is pounding so hard that I feel a little dizzy and I'm so shaky that it takes all my effort to push open the massive door There's a large receptionist's desk behind which sits a pale young man wearing a tie his thin face almost buried behind several stacks of scripts and a giant bouquet of flowers A clipboard faces out on his desk with the words sign in written in bold letters at the top and I go straight for it not wanting to look hesitant or inexperienced,What does the narrator find on the receptionist's desk?,A. A bouquet of flowers,B. A stack of scripts,C. A clipboard with a "sign in" sheet,D. All of the above,D. All of the above,yes,14.7283125,,,,,,,,,,,,,0,23,23,23,0,0,0,0,,,,,,,,,,,,,,,,,,,,,,,,,,,,,,,,,,,,,,,,,,,,,,,,,,,,,,,,,,,,,,,,,,,,,,,,,,,,,,,,,,,,,,p_1,001,2024-03-08_12h32.06.988,speech_rate,2023.2.3,None,2024-03-08 12h36.04.945311 -0800,
,Someday_129_condition-2x.wav,Someday__Someday__Maybe__Unabridged___File_057_of_116_1.wav,My heart is pounding so hard that I feel a little dizzy and I'm so shaky that it takes all my effort to push open the massive door There's a large receptionist's desk behind which sits a pale young man wearing a tie his thin face almost buried behind several stacks of scripts and a giant bouquet of flowers A clipboard faces out on his desk with the words sign in written in bold letters at the top and I go straight for it not wanting to look hesitant or inexperienced,What does the narrator find on the receptionist's desk?,A. A bouquet of flowers,B. A stack of scripts,C. A clipboard with a "sign in" sheet,D. All of the above,D. All of the above,yes,14.7283125,,,,,,,,,,,,,0,23,23,23,,,,,,,,,,,,,,,,,,,,,,,,,,,,,,,,,,,,,,,,,,,,,,,,,984.5943703339944,988.3616517499977,0,,,0,,,1,3.757496499994886,3.757499832994654,0,,,,,,,,,,,,,,,,,,,,,,,,,,,,,,p_1,001,2024-03-08_12h32.06.988,speech_rate,2023.2.3,None,2024-03-08 12h36.04.945311 -0800,
,Someday_44_condition-2x.wav,Someday__Someday__Maybe__Unabridged___File_024_of_116_0.wav,It's such a talent to be able to make people laugh but God forbid you end up on something joyless and soul crushing like that show with all the nurses Hello New York The first person I spot outside the theater is Dina smoking with a few other classmates Dina is one of the older members of our class in her 40s maybe and is still sort of famous from a show she did in the 80s called There's Pierre which I remember watching all the time growing up but she never mentions it so I don't either,What show does the narrator consider joyless and soul-crushing?,A. A show about nurses,B. A show called "Hello New York",C. A show from the 80s,D. A show with Dina,A. A show about nurses,yes,14.97,,,,,,,,,,,,,0,24,24,24,0,0,0,0,0,0,0,0,1009.8970702919978,,,,,,,,,,,,989.7994067089967,989.8150090006641,989.819560416996,1004.7831247089998,1004.796551499996,1004.8183062919998,1005.0504685419946,1005.0504685419946,1006.513060792,1007.201228083999,10,1.6698858749950887,1,[0.698028416998568],[0.6980309169957764],,,,,,,,,,1009.8875360839957,1009.8970702919978,1024.8870271669948,its great ot make people laugh but bad ot end up on a show like the one about nurses deen,,,,,,,,,,,,,,,1024.9104448340004,,,,,,,,988.362198625,988.3698249590016,988.3698249590016,988.3698249590016,989.799201834001,1,[1.435192625001946],[1.4351957920007408],1007.2017122920006,1007.2111844999963,1007.2111844999963,1007.2111844999963,1009.8865698340014,1,[2.6841117499934626],[2.684114416995726],0,,,p_1,001,2024-03-08_12h32.06.988,speech_rate,2023.2.3,None,2024-03-08 12h36.04.945311 -0800,
,Someday_44_condition-2x.wav,Someday__Someday__Maybe__Unabridged___File_024_of_116_0.wav,It's such a talent to be able to make people laugh but God forbid you end up on something joyless and soul crushing like that show with all the nurses Hello New York The first person I spot outside the theater is Dina smoking with a few other classmates Dina is one of the older members of our class in her 40s maybe and is still sort of famous from a show she did in the 80s called There's Pierre which I remember watching all the time growing up but she never mentions it so I don't either,What show does the narrator consider joyless and soul-crushing?,A. A show about nurses,B. A show called "Hello New York",C. A show from the 80s,D. A show with Dina,A. A show about nurses,yes,14.97,,,,,,,,,,,,,0,24,24,24,0,0,0,0,,,,,,,,,,,,,,,,,,,,,,,,,,,,,,,,,,,,,,,,,,,,,,,,,,,,,,,,,,,,,,,,,,,,,,,,,,,,,,,,,,,,,,p_1,001,2024-03-08_12h32.06.988,speech_rate,2023.2.3,None,2024-03-08 12h36.04.945311 -0800,
,Someday_44_condition-2x.wav,Someday__Someday__Maybe__Unabridged___File_024_of_116_0.wav,It's such a talent to be able to make people laugh but God forbid you end up on something joyless and soul crushing like that show with all the nurses Hello New York The first person I spot outside the theater is Dina smoking with a few other classmates Dina is one of the older members of our class in her 40s maybe and is still sort of famous from a show she did in the 80s called There's Pierre which I remember watching all the time growing up but she never mentions it so I don't either,What show does the narrator consider joyless and soul-crushing?,A. A show about nurses,B. A show called "Hello New York",C. A show from the 80s,D. A show with Dina,A. A show about nurses,yes,14.97,,,,,,,,,,,,,0,24,24,24,,,,,,,,,,,,,,,,,,,,,,,,,,,,,,,,,,,,,,,,,,,,,,,,,1024.8872469589987,1030.2055042919965,1,5.304294374996971,5.304297541995766,0,,,0,,,0,,,,,,,,,,,,,,,,,,,,,,,,,,,,,,p_1,001,2024-03-08_12h32.06.988,speech_rate,2023.2.3,None,2024-03-08 12h36.04.945311 -0800,
,Someday_14_condition.wav,Someday__Someday__Maybe__Unabridged___File_009_of_116_2.wav,Jane grew up in Greenwich Village in Manhattan and has style Where I struggle to match a black shirt with black pants she throws on jeans and a t shirt and nine chunky cuffs on one wrist with an air that says so I dare you to not find this cool She shops at Century 21 and Boltons and second hand stores and somehow makes it all look expensive Wait Jane Levine you are not just getting home are you I ask peeking into one of the brown bags Can they do that to you,Where did Jane grow up in?,A. Williamsburg,B. Greenwich Village,C. SoHo,D. Queens,B. Greenwich Village,no,28.11003125,,,,,,,,,,,,,0,25,25,25,,,,,,,,,1030.212656083997,,,,,,,,,,,,1034.036978749995,1034.069648250334,1034.0678153749977,1062.1712197089946,1062.1831019589954,1062.2053651249953,1062.4499753749988,1062.4499753749988,1064.5662612919987,1065.1112883339956,9.333333333333334,2.336218165997707,1,[0.5540785409975797],[0.5540811249957187],,,,,,,,,,,,,,1065.111723666996,1068.4586925420008,0,,,1,3.3388803749985527,3.3388849160037353,0,,,0,,,,,,,,,,,1030.2060037089977,1030.212656083997,1030.212656083997,1030.212656083997,1034.0367985839985,1,[3.8293394580032327],[3.8293421670023235],,,,,,,,,,,,p_1,001,2024-03-08_12h32.06.988,speech_rate,2023.2.3,None,2024-03-08 12h36.04.945311 -0800,
,Someday_140_condition-2-5x.wav,Someday__Someday__Maybe__Unabridged___File_081_of_116_2.wav,a Motown singer croons soft and low from the stereo the camera pans across the floor Sutton's sneaker Sheila's bra. We see a velvet ring box on the nightstand opened but empty We see remnants of the wrapping from Sheila's gift and as the camera moves closer to the bed We see it's a framed collage homemade simple but beautiful the word Yes repeated a hundred times in different sizes and shapes and colors She knew tonight was theirs the ring on her finger says the proposal went well,What accessory does the women wear?,A. A scrunchy,B. An engagement ring,C. A diamond necklace,D. Dangling earrings,B. An engagement ring,yes,14.41271875,,,,,,,,,,,,,0,26,26,26,0,0,0,0,0,0,0,0,1088.9173877919966,,,,,,,,,,,,1069.9889609169986,1070.004981208662,1070.0074249589961,1084.4161261670015,1084.4201562089947,1084.431392749997,1084.6350328749977,1084.6350328749977,1086.5169426669963,1087.6055269589997,9.45,2.454627999999502,1,[1.097589875003905],[1.0975920839991886],,,,,,,,,,1088.907990791995,1088.9173877919966,1103.901484666996,"collage on her bed with many colors and the word yes. she knew tonight was there's, she has a ring, th",,,,,,,,,,,,,,,1103.9194297499998,,,,,,,,1068.459233624999,1068.4815874999986,1068.4815874999986,1068.4815874999986,1069.9887814589965,1,[1.5290987500047777],[1.5291013750029379],1087.6060347499952,1087.615578334,1087.615578334,1087.615578334,1088.9072842499954,1,[1.3004700000019511],[1.3004724580023321],0,,,p_1,001,2024-03-08_12h32.06.988,speech_rate,2023.2.3,None,2024-03-08 12h36.04.945311 -0800,
,Someday_140_condition-2-5x.wav,Someday__Someday__Maybe__Unabridged___File_081_of_116_2.wav,a Motown singer croons soft and low from the stereo the camera pans across the floor Sutton's sneaker Sheila's bra. We see a velvet ring box on the nightstand opened but empty We see remnants of the wrapping from Sheila's gift and as the camera moves closer to the bed We see it's a framed collage homemade simple but beautiful the word Yes repeated a hundred times in different sizes and shapes and colors She knew tonight was theirs the ring on her finger says the proposal went well,What accessory does the women wear?,A. A scrunchy,B. An engagement ring,C. A diamond necklace,D. Dangling earrings,B. An engagement ring,yes,14.41271875,,,,,,,,,,,,,0,26,26,26,0,0,0,0,,,,,,,,,,,,,,,,,,,,,,,,,,,,,,,,,,,,,,,,,,,,,,,,,,,,,,,,,,,,,,,,,,,,,,,,,,,,,,,,,,,,,,p_1,001,2024-03-08_12h32.06.988,speech_rate,2023.2.3,None,2024-03-08 12h36.04.945311 -0800,
,Someday_140_condition-2-5x.wav,Someday__Someday__Maybe__Unabridged___File_081_of_116_2.wav,a Motown singer croons soft and low from the stereo the camera pans across the floor Sutton's sneaker Sheila's bra. We see a velvet ring box on the nightstand opened but empty We see remnants of the wrapping from Sheila's gift and as the camera moves closer to the bed We see it's a framed collage homemade simple but beautiful the word Yes repeated a hundred times in different sizes and shapes and colors She knew tonight was theirs the ring on her finger says the proposal went well,What accessory does the women wear?,A. A scrunchy,B. An engagement ring,C. A diamond necklace,D. Dangling earrings,B. An engagement ring,yes,14.41271875,,,,,,,,,,,,,0,26,26,26,,,,,,,,,,,,,,,,,,,,,,,,,,,,,,,,,,,,,,,,,,,,,,,,,1103.9017360419966,1106.518362709001,0,,,1,2.608328124995751,2.6083314169954974,0,,,0,,,,,,,,,,,,,,,,,,,,,,,,,,,,,,p_1,001,2024-03-08_12h32.06.988,speech_rate,2023.2.3,None,2024-03-08 12h36.04.945311 -0800,
,Someday_40_condition-4x.wav,Someday__Someday__Maybe__Unabridged___File_021_of_116_3.wav,Aren't you cold It's James Franklin the last person I want to see right now Nothing could make me feel worse after what happened tonight than to be reminded that a guy I gushed all over got my phone number but never called me Even after I learned that he and Penelope were some sort of couple I held my breath every day for the last two weeks while waiting for the machine to rewind hoping he'd left a message but he never did James smiles at me and stamps his feet rubbing his hands together and blowing on them,Why does the narrator feel embarrassed to see James Franklin?,A. Because he got her phone number but never called,B. Because he is dating Penelope,C. Because he reminds her of a bad experience,D. Because he is unfriendly,A. Because he got her phone number but never called,no,7.0725,,,,,,,,,,,,,0,27,27,27,,,,,,,,,1106.526418124995,,,,,,,,,,,,1107.7405712089967,1107.7565175836683,1107.7527520840013,1114.8347310419995,1114.836925124997,1114.847951374999,1115.085873541997,1115.085873541997,1117.7688374589998,1118.210075666997,3.033333333333333,2.8966484580014367,1,[0.4500645420048386],[0.4500670000052196],,,,,,,,,,,,,,1118.2105335839951,1125.1454699589958,1,6.925171208000393,6.925174249998236,0,,,0,,,0,,,,,,,,,,,1106.5189667089944,1106.526418124995,1106.526418124995,1106.526418124995,1107.7403874999945,1,[1.2197263749985723],[1.2197295000005397],,,,,,,,,,,,p_1,001,2024-03-08_12h32.06.988,speech_rate,2023.2.3,None,2024-03-08 12h36.04.945311 -0800,
,Someday_113_condition-4x.wav,Someday__Someday__Maybe__Unabridged___File_050_of_116_0.wav,She lives I think I need a manager Why do you need a manager I thought you just got an agent I did but they aren't getting me any auditions If you have no auditions what's there to manage A manager would help me get auditions How could a manager do that when the agents can't Well managers have fewer people so they can focus just on you And why do you have an agent at all Why not just have a manager You have to have an agent They're the only ones allowed to negotiate contracts Agents are franchised managers aren't,Why does the narrator want to get a manager?,A. To help negotiate contracts,B. To get auditions,C. Because agents are expensive,D. To manage the finances,B. To get auditions,no,7.005,,,,,,,,,,,,,0,28,28,28,,,,,,,,,1125.1532957089948,,,,,,,,,,,,1126.058824959,1126.0747725416625,1126.0707637499945,1133.069055,1133.0860722090001,1133.0972748749991,1133.3045917499985,1133.3045917499985,1134.6535900839954,1135.7808752089986,2.35,1.5297593329960364,1,[1.1371805000017048],[1.1371827499970095],,,,,,,,,,,,,,1135.781289958999,1144.7106713339963,0,,,1,8.921558249996451,8.921561249997467,0,,,0,,,,,,,,,,,1125.146023166999,1125.1532957089948,1125.1532957089948,1125.1532957089948,1126.0586433749995,1,[0.9110258340006112],[0.9110288340016268],,,,,,,,,,,,p_1,001,2024-03-08_12h32.06.988,speech_rate,2023.2.3,None,2024-03-08 12h36.04.945311 -0800,
,Someday_134_condition-2x.wav,Someday__Someday__Maybe__Unabridged___File_073_of_116_4.wav,"I don't want to admit it, but I'm still half-hoping to hear from James. But then I'm struck by how bad it would feel to wait for him on the night I just learned that no one's waiting for me anymore, and that catch you later okay isn't a plan, not a real one anyway. Maybe it wouldn't be such a bad thing if James called and got no answer. Um, okay? For what? He sits up, swinging his long legs down to the floor, then rubs his eyes and squints at me as if he's not sure whether he's awake or dreaming.",How does the narrator feel about receiving a call from James?,A. She is still hopeful,B. She is sure that he won't call,C. She doesn't care about it,D. She is optimistic,A. She is still hopeful,yes,15.46003125,,,,,,,,,,,,,0,29,29,29,0,0,0,0,0,0,0,0,1169.755459,,,,,,,,,,,,1145.513016208999,1145.528817708666,1145.5333814589976,1160.9878226250003,1161.006062499997,1161.0272047920007,1161.2278950839973,1161.2278950839973,1164.9711328749981,1167.0989427499953,6.758333333333334,5.433284749997256,1,[2.13725979100127],[2.1372620000038296],,,,,,,,,,1169.7461552089953,1169.755459,1184.739465999999,"i wonder if james will call, but then i realize how bad it will feel to wait for him on a night when i found out nobody i",,,,,,,,,,,,,,,1184.7584118339946,,,,,,,,1144.711140333995,1144.7184884999951,1144.7184884999951,1144.7184884999951,1145.5128197090016,1,[0.8010779159958474],[0.8010806249949383],1167.0994368339962,1167.1057964169959,1167.1057964169959,1167.1057964169959,1169.7454575839947,1,[2.6452448749987525],[2.645247540996934],0,,,p_1,001,2024-03-08_12h32.06.988,speech_rate,2023.2.3,None,2024-03-08 12h36.04.945311 -0800,
,Someday_134_condition-2x.wav,Someday__Someday__Maybe__Unabridged___File_073_of_116_4.wav,"I don't want to admit it, but I'm still half-hoping to hear from James. But then I'm struck by how bad it would feel to wait for him on the night I just learned that no one's waiting for me anymore, and that catch you later okay isn't a plan, not a real one anyway. Maybe it wouldn't be such a bad thing if James called and got no answer. Um, okay? For what? He sits up, swinging his long legs down to the floor, then rubs his eyes and squints at me as if he's not sure whether he's awake or dreaming.",How does the narrator feel about receiving a call from James?,A. She is still hopeful,B. She is sure that he won't call,C. She doesn't care about it,D. She is optimistic,A. She is still hopeful,yes,15.46003125,,,,,,,,,,,,,0,29,29,29,0,0,0,0,,,,,,,,,,,,,,,,,,,,,,,,,,,,,,,,,,,,,,,,,,,,,,,,,,,,,,,,,,,,,,,,,,,,,,,,,,,,,,,,,,,,,,p_1,001,2024-03-08_12h32.06.988,speech_rate,2023.2.3,None,2024-03-08 12h36.04.945311 -0800,
,Someday_134_condition-2x.wav,Someday__Someday__Maybe__Unabridged___File_073_of_116_4.wav,"I don't want to admit it, but I'm still half-hoping to hear from James. But then I'm struck by how bad it would feel to wait for him on the night I just learned that no one's waiting for me anymore, and that catch you later okay isn't a plan, not a real one anyway. Maybe it wouldn't be such a bad thing if James called and got no answer. Um, okay? For what? He sits up, swinging his long legs down to the floor, then rubs his eyes and squints at me as if he's not sure whether he's awake or dreaming.",How does the narrator feel about receiving a call from James?,A. She is still hopeful,B. She is sure that he won't call,C. She doesn't care about it,D. She is optimistic,A. She is still hopeful,yes,15.46003125,,,,,,,,,,,,,0,29,29,29,,,,,,,,,,,,,,,,,,,,,,,,,,,,,,,,,,,,,,,,,,,,,,,,,1184.739716791999,1195.1998927089953,0,,,1,10.45081366699742,10.45081724999909,0,,,0,,,,,,,,,,,,,,,,,,,,,,,,,,,,,,p_1,001,2024-03-08_12h32.06.988,speech_rate,2023.2.3,None,2024-03-08 12h36.04.945311 -0800,
,Someday_131_condition-2x.wav,Someday__Someday__Maybe__Unabridged___File_058_of_116_1.wav,It sounds ominous For a minute I stare into the camera which is set up on a tripod facing the chair Then I realize that if the camera sees everything it's seeing me now stare dumbly into it I've had cameras at auditions before of course but for commercials you generally look directly into them a man versus machine staring contest Today however I'm going to be reading with a person while the camera regards me from another angle and I'm supposed to pretend that doesn't make me feel self conscious,How does the camera make the narrator feel?,A. Self conscious,B. Excited,C. Motivated,D. Emotional,A. Self conscious,no,15.0626875,,,,,,,,,,,,,0,30,30,30,,,,,,,,,1195.208078124997,,,,,,,,,,,,1196.299550374999,1196.315335208663,1196.3198642499992,1211.3905083749996,1211.3924685839957,1211.414435916995,1211.6572540419947,1211.6572540419947,1213.3223467089992,1213.8912467089976,9.466666666666667,1.867906999999832,1,[0.5936881250017905],[0.593690500005323],,,,,,,,,,,,,,1213.8916759169952,1216.5658333749961,1,2.6670919580064947,2.6670949580002343,0,,,0,,,0,,,,,,,,,,,1195.2004531669954,1195.208078124997,1195.208078124997,1195.208078124997,1196.2993569589962,1,[1.0970463330013445],[1.0970494170032907],,,,,,,,,,,,p_1,001,2024-03-08_12h32.06.988,speech_rate,2023.2.3,None,2024-03-08 12h36.04.945311 -0800,
,Someday_105_condition-4x.wav,Someday__Someday__Maybe__Unabridged___File_047_of_116_1.wav,Like he was a person but from another planet or something But the longer I work for him the more I see he's just this guy this very unusually gorgeous extremely muscly guy who's sort of funny and sort of smart but who's a regular person who married the girl he dated in high school and doesn't seem to know how he got here He seems totally baffled by his success and he's always asking my opinion about things like his wardrobe or whatever And I'm wondering if he's forgotten I'm just the PA on my very first movie ever,What is the narrator's perception of the person she works for?,A. He's like a person from another planet,B. He's extremely muscly and smart,C. He's very confident and self-assured,D. He's just a regular person baffled by his success,D. He's just a regular person baffled by his success,no,7.465,,,,,,,,,,,,,0,31,31,31,,,,,,,,,1216.5731397499985,,,,,,,,,,,,1217.7810763339949,1217.7970508336623,1217.7943892920011,1225.2672243749985,1225.2676423339944,1225.2778807089999,1225.4818752499996,1225.4818752499996,1231.4848444999952,1234.0300533749978,3.275,6.179628416000924,1,[2.554303541997797],[2.5543063750010333],,,,,,,,,,,,,,1234.030496542,1243.0656372919984,0,,,0,,,1,9.026013875001809,9.0260167919987,0,,,,,,,,,,,1216.5663302920002,1216.5731397499985,1216.5731397499985,1216.5731397499985,1217.780892208997,1,[1.2129919579965645],[1.2129950829985319],,,,,,,,,,,,p_1,001,2024-03-08_12h32.06.988,speech_rate,2023.2.3,None,2024-03-08 12h36.04.945311 -0800,
,Someday_73_condition-3-5x.wav,Someday__Someday__Maybe__Unabridged___File_035_of_116_1.wav,It's four flights up to Barney's office I'm puffing by the time I make it to the top There's no secretary sitting at the desk in the little front room Hello I say to the emptiness Back here dear comes a loud and raspy voice There's a desk with a window behind it and bookshelves on either side which are stacked to the ceiling with scripts and old playbills The titles are written in Sharpie on the edge of the pages so they can be read when stacked face to face and the block print is bold but shaky,What are the stacked objects at Barney Sparks' office?,A. Scripts,B. Paychecks,C. Menus,D. Photos,A. Scripts,no,9.16875,,,,,,,,,,,,,0,32,32,32,,,,,,,,,1243.0741187919994,,,,,,,,,,,,1243.932425084,1243.948411750662,1243.9474584169948,1253.1262435839963,1253.1281333340012,1253.1393393749968,1253.3450694589992,1253.3450694589992,1258.7318149999992,1259.2492134589993,4.383333333333333,5.567384458998276,1,[0.52675345899479],[0.5267559999992955],,,,,,,,,,,,,,1259.2496475419975,1266.3338829169952,1,7.077120415997342,7.0771234999992885,0,,,0,,,0,,,,,,,,,,,1243.0660956669963,1243.0741187919994,1243.0741187919994,1243.0741187919994,1243.9322428749947,1,[0.8655845419998514],[0.865587707994564],,,,,,,,,,,,p_1,001,2024-03-08_12h32.06.988,speech_rate,2023.2.3,None,2024-03-08 12h36.04.945311 -0800,
,Someday_8_condition-3x.wav,Someday__Someday__Maybe__Unabridged___File_007_of_116_1.wav,And one accomplishment a year wasn't exactly what I had in mind Still wedged halfway beneath the bed it takes all my strength to push a barely used roller blade out of the way At this point I'm just sweeping my arm back and forth making the same movement under my bed as I would if making a snow angel only the accumulated junk is a lot harder to move I give up for a moment resting my cheek against the cool wooden floor with a sigh Do you have any idea how few actors make it people always say,What does the narrator push out of the way?,A. Roller blades,B. Snow angel drawings,C. Junk that's hard to move,D. Cool wooden floor,A. Roller blades,yes,10.9425,,,,,,,,,,,,,0,33,33,33,0,0,0,0,0,0,0,0,1282.2619354589988,,,,,,,,,,,,1267.4336296249967,1267.449553500661,1267.4498788749988,1278.3841682089987,1278.3949146250015,1278.4058192500015,1278.6142937920013,1278.6142937920013,1280.611027250001,1281.1827239999984,9.15,2.180548958000145,1,[0.5810793330019806],[0.5810817079982371],,,,,,,,,,1282.252420334,1282.2619354589988,1297.2458999169976,"one accomplishment a year. I make snow angels under my bed, do you know how many actors make it p",,,,,,,,,,,,,,,1297.2652194999973,,,,,,,,1266.3343691670016,1266.3420027920001,1266.3420027920001,1266.3420027920001,1267.4334404170004,1,[1.0976714170028572],[1.0976745830048458],1281.1832027919954,1281.193261417,1281.193261417,1281.193261417,1282.2517100839978,1,[1.0677232919988455],[1.0677257499992265],0,,,p_1,001,2024-03-08_12h32.06.988,speech_rate,2023.2.3,None,2024-03-08 12h36.04.945311 -0800,
,Someday_8_condition-3x.wav,Someday__Someday__Maybe__Unabridged___File_007_of_116_1.wav,And one accomplishment a year wasn't exactly what I had in mind Still wedged halfway beneath the bed it takes all my strength to push a barely used roller blade out of the way At this point I'm just sweeping my arm back and forth making the same movement under my bed as I would if making a snow angel only the accumulated junk is a lot harder to move I give up for a moment resting my cheek against the cool wooden floor with a sigh Do you have any idea how few actors make it people always say,What does the narrator push out of the way?,A. Roller blades,B. Snow angel drawings,C. Junk that's hard to move,D. Cool wooden floor,A. Roller blades,yes,10.9425,,,,,,,,,,,,,0,33,33,33,0,0,0,0,,,,,,,,,,,,,,,,,,,,,,,,,,,,,,,,,,,,,,,,,,,,,,,,,,,,,,,,,,,,,,,,,,,,,,,,,,,,,,,,,,,,,,p_1,001,2024-03-08_12h32.06.988,speech_rate,2023.2.3,None,2024-03-08 12h36.04.945311 -0800,
,Someday_8_condition-3x.wav,Someday__Someday__Maybe__Unabridged___File_007_of_116_1.wav,And one accomplishment a year wasn't exactly what I had in mind Still wedged halfway beneath the bed it takes all my strength to push a barely used roller blade out of the way At this point I'm just sweeping my arm back and forth making the same movement under my bed as I would if making a snow angel only the accumulated junk is a lot harder to move I give up for a moment resting my cheek against the cool wooden floor with a sigh Do you have any idea how few actors make it people always say,What does the narrator push out of the way?,A. Roller blades,B. Snow angel drawings,C. Junk that's hard to move,D. Cool wooden floor,A. Roller blades,yes,10.9425,,,,,,,,,,,,,0,33,33,33,,,,,,,,,,,,,,,,,,,,,,,,,,,,,,,,,,,,,,,,,,,,,,,,,1297.2461667089956,1303.0977765419957,0,,,0,,,1,5.842197749996558,5.842210582995904,0,,,,,,,,,,,,,,,,,,,,,,,,,,,,,,p_1,001,2024-03-08_12h32.06.988,speech_rate,2023.2.3,None,2024-03-08 12h36.04.945311 -0800,
,Someday_123_condition-3-5x.wav,Someday__Someday__Maybe__Unabridged___File_054_of_116_3.wav,I'll admit it's sort of a sick relationship to have with someone who is hardly in your life Lisa doesn't come on until noon and I'm regularly sleeping until then now because there's no reason to get up any earlier Jane is treating it as a big deal as if there's something really wrong with me She calls me from work every day just to make sure I get up I'm worried about you You're depressed I'm fine My roommate Francis Farmer Jane says melodramatically I'm a sensitive creative type I'm going through something,Why does Jane call the narrator character every day?,A. To share gossip,B. To check if the main character is awake,C. To discuss their favorite TV shows,D. To offer emotional support,B. To check if the main character is awake,yes,9.425,,,,,,,,,,,,,0,34,34,34,0,0,0,0,0,0,0,0,1317.1641384169998,,,,,,,,,,,,1303.7706215419967,1303.7865517506618,1303.7854582090004,1313.2130217090016,1313.2148125839958,1313.2260350419965,1313.4635419170008,1313.4635419170008,1315.0139510839945,1315.5520331669977,8.075,1.7633057909988565,1,[0.5474700839986326],[0.5474724589948892],,,,,,,,,,1317.1544071249955,1317.1641384169998,1332.1478830419946,"I'm worried about you, I'm fine, I'm a sensitive creative type and I'm going through something",,,,,,,,,,,,,,,1332.1667514590008,,,,,,,,1303.0982869590007,1303.1117159169953,1303.1117159169953,1303.1117159169953,1303.770444541995,1,[0.6705951250041835],[0.6706035000024713],1315.552486458997,1315.5618772499947,1315.5618772499947,1315.5618772499947,1317.1536908749986,1,[1.6004079170015757],[1.600410416998784],0,,,p_1,001,2024-03-08_12h32.06.988,speech_rate,2023.2.3,None,2024-03-08 12h36.04.945311 -0800,
,Someday_123_condition-3-5x.wav,Someday__Someday__Maybe__Unabridged___File_054_of_116_3.wav,I'll admit it's sort of a sick relationship to have with someone who is hardly in your life Lisa doesn't come on until noon and I'm regularly sleeping until then now because there's no reason to get up any earlier Jane is treating it as a big deal as if there's something really wrong with me She calls me from work every day just to make sure I get up I'm worried about you You're depressed I'm fine My roommate Francis Farmer Jane says melodramatically I'm a sensitive creative type I'm going through something,Why does Jane call the narrator character every day?,A. To share gossip,B. To check if the main character is awake,C. To discuss their favorite TV shows,D. To offer emotional support,B. To check if the main character is awake,yes,9.425,,,,,,,,,,,,,0,34,34,34,0,0,0,0,,,,,,,,,,,,,,,,,,,,,,,,,,,,,,,,,,,,,,,,,,,,,,,,,,,,,,,,,,,,,,,,,,,,,,,,,,,,,,,,,,,,,,p_1,001,2024-03-08_12h32.06.988,speech_rate,2023.2.3,None,2024-03-08 12h36.04.945311 -0800,
,Someday_123_condition-3-5x.wav,Someday__Someday__Maybe__Unabridged___File_054_of_116_3.wav,I'll admit it's sort of a sick relationship to have with someone who is hardly in your life Lisa doesn't come on until noon and I'm regularly sleeping until then now because there's no reason to get up any earlier Jane is treating it as a big deal as if there's something really wrong with me She calls me from work every day just to make sure I get up I'm worried about you You're depressed I'm fine My roommate Francis Farmer Jane says melodramatically I'm a sensitive creative type I'm going through something,Why does Jane call the narrator character every day?,A. To share gossip,B. To check if the main character is awake,C. To discuss their favorite TV shows,D. To offer emotional support,B. To check if the main character is awake,yes,9.425,,,,,,,,,,,,,0,34,34,34,,,,,,,,,,,,,,,,,,,,,,,,,,,,,,,,,,,,,,,,,,,,,,,,,1332.1481342499974,1336.274596958996,0,,,0,,,0,,,1,4.117540416998963,4.117543833999662,,,,,,,,,,,,,,,,,,,,,,,,,,,,p_1,001,2024-03-08_12h32.06.988,speech_rate,2023.2.3,None,2024-03-08 12h36.04.945311 -0800,
,Someday_3_condition-2-5x.wav,Someday__Someday__Maybe__Unabridged___File_005_of_116_1.wav,I suppose I did but I'm still too groggy to focus on the details Normally I would have asked our other roommate my best friend Jane but she's been working nights as a PA on that new Russell Blakely movie Since Dan moved into the bedroom downstairs a few months ago I haven't noticed much about him except how unnecessarily tall he is how many hours he spends writing at the computer and the intense fear he seems to have about coming upon either of us when we're not decent Dan come in You're decent,What is the main reason the narrator doesn't ask their roommate Jane for help?,A. Jane is too busy working,B. Jane is not a good friend,C. The narrator doesn't trust Jane,D. The narrator prefers not to tak to anyone,A. Jane is too busy working,yes,12.980625,,,,,,,,,,,,,0,35,35,35,0,0,0,0,0,0,0,0,1356.5829841669984,,,,,,,,,,,,1337.389687709001,1337.4054527086666,1337.408001249998,1350.398426833999,1350.4005770840013,1350.4118174999967,1350.6458121249962,1350.6458121249962,1352.5160884590005,1353.8262986249974,8.116666666666667,2.0797890829999233,1,[1.3195503750030184],[1.3195526250055991],,,,,,,,,,1356.5735465420003,1356.5829841669984,1371.5667612499965,"I'm groggy, jane is working on a new film, my new roommate Dan I don't know muc",,,,,,,,,,,,,,,1371.5864349999974,,,,,,,,1336.2751540419995,1336.2817840419957,1336.2817840419957,1336.2817840419957,1337.3894839589993,1,[1.1136425000004238],[1.1136449580008048],1353.8268246669977,1353.8328634999998,1353.8328634999998,1353.8328634999998,1356.5727121669988,1,[2.74507441699825],[2.7450769579954795],0,,,p_1,001,2024-03-08_12h32.06.988,speech_rate,2023.2.3,None,2024-03-08 12h36.04.945311 -0800,
,Someday_3_condition-2-5x.wav,Someday__Someday__Maybe__Unabridged___File_005_of_116_1.wav,I suppose I did but I'm still too groggy to focus on the details Normally I would have asked our other roommate my best friend Jane but she's been working nights as a PA on that new Russell Blakely movie Since Dan moved into the bedroom downstairs a few months ago I haven't noticed much about him except how unnecessarily tall he is how many hours he spends writing at the computer and the intense fear he seems to have about coming upon either of us when we're not decent Dan come in You're decent,What is the main reason the narrator doesn't ask their roommate Jane for help?,A. Jane is too busy working,B. Jane is not a good friend,C. The narrator doesn't trust Jane,D. The narrator prefers not to tak to anyone,A. Jane is too busy working,yes,12.980625,,,,,,,,,,,,,0,35,35,35,0,0,0,0,,,,,,,,,,,,,,,,,,,,,,,,,,,,,,,,,,,,,,,,,,,,,,,,,,,,,,,,,,,,,,,,,,,,,,,,,,,,,,,,,,,,,,p_1,001,2024-03-08_12h32.06.988,speech_rate,2023.2.3,None,2024-03-08 12h36.04.945311 -0800,
,Someday_3_condition-2-5x.wav,Someday__Someday__Maybe__Unabridged___File_005_of_116_1.wav,I suppose I did but I'm still too groggy to focus on the details Normally I would have asked our other roommate my best friend Jane but she's been working nights as a PA on that new Russell Blakely movie Since Dan moved into the bedroom downstairs a few months ago I haven't noticed much about him except how unnecessarily tall he is how many hours he spends writing at the computer and the intense fear he seems to have about coming upon either of us when we're not decent Dan come in You're decent,What is the main reason the narrator doesn't ask their roommate Jane for help?,A. Jane is too busy working,B. Jane is not a good friend,C. The narrator doesn't trust Jane,D. The narrator prefers not to tak to anyone,A. Jane is too busy working,yes,12.980625,,,,,,,,,,,,,0,35,35,35,,,,,,,,,,,,,,,,,,,,,,,,,,,,,,,,,,,,,,,,,,,,,,,,,1371.5669924589965,1374.9595043340014,1,3.3825344590004534,3.382537624995166,0,,,0,,,0,,,,,,,,,,,,,,,,,,,,,,,,,,,,,,p_1,001,2024-03-08_12h32.06.988,speech_rate,2023.2.3,None,2024-03-08 12h36.04.945311 -0800,
,Someday_27_condition-4x.wav,Someday__Someday__Maybe__Unabridged___File_016_of_116_0.wav,And maybe we'll go out sometime and maybe we'll fall in love and someday we'll happen to be walking down this very street and he'll say remember that day when we accidentally ran into each other here But none of that can happen if he walks by me on the street today I make my way across 45th Street and hover near a trash can digging in my bag as if I'm looking for something I need to throw out waiting for his light to change Finally I can see him start to walk across the street I look away so he doesn't see me staring at him and when I glance up again I've lost him in the crowd,What is the narrator's hope regarding the person she encounters on the street?,A. To avoid meeting them,B. To have a chance encounter,C. To never see them again,D. To get their phone number,B. To have a chance encounter,no,7.39,,,,,,,,,,,,,0,36,36,36,,,,,,,,,1374.967339458999,,,,,,,,,,,,1376.873362667,1376.8893260416628,1376.8874373750004,1384.269103874998,1384.2853199169986,1384.2963307499958,1384.5328905839997,1384.5328905839997,1387.9934831669962,1388.6569766249959,2.625,3.6714632080038427,1,[0.6729656670067925],[0.6729680839998764],,,,,,,,,,,,,,1388.6574189999956,1393.7596851249982,1,5.093703999998979,5.093706416999339,0,,,0,,,0,,,,,,,,,,,1374.960067,1374.967339458999,1374.967339458999,1374.967339458999,1376.8731806669966,1,[1.9115047500017681],[1.9115074170040316],,,,,,,,,,,,p_1,001,2024-03-08_12h32.06.988,speech_rate,2023.2.3,None,2024-03-08 12h36.04.945311 -0800,
,Someday_98_condition-2x.wav,Someday__Someday__Maybe__Unabridged___File_044_of_116_0.wav,Yes Laughing girl has no lines She just laughs She just so there's no scene Nope She's a girl She laughs They want a funny laugher That's it Take a seat They'll be with you in a minute I squeeze onto the lumpy sofa next to a skinny brunette wearing high heeled black boots and funky glasses I should wear high heeled boots instead of Doc Martens I think to myself as I break into a nervous sweat I should get some funky glasses I should have a funny laugh,What is the role that the narrator is auditioning for?,A. A dramatic lead,B. A character with no lines,C. A comedy writer,D. A serious actress,B. A character with no lines,no,14.58,,,,,,,,,,,,,0,37,37,37,,,,,,,,,1393.7669416249992,,,,,,,,,,,,1394.9092984589952,1394.9251990416635,1394.930591833996,1409.5181193749959,1409.5191269999996,1409.5303606249945,1409.7361299999975,1409.7361299999975,1411.0449039589948,1412.2736014999973,10,1.4872917920001782,1,[1.2379052079995745],[1.2379074159980519],,,,,,,,,,,,,,1412.2740434590014,1415.2051599999977,0,,,1,2.923271999999997,2.9232755409975653,0,,,0,,,,,,,,,,,1393.7601774590003,1393.7669416249992,1393.7669416249992,1393.7669416249992,1394.9091096669945,1,[1.147451374999946],[1.147454458005086],,,,,,,,,,,,p_1,001,2024-03-08_12h32.06.988,speech_rate,2023.2.3,None,2024-03-08 12h36.04.945311 -0800,
,Someday_138_condition-3x.wav,Someday__Someday__Maybe__Unabridged___File_080_of_116_1.wav,"The page is practically touching his glasses, so I can't exactly see his reaction. Dan, I say, what do you think? I mean, the script isn't too terrible, right? I was distracted by having to read it out loud, Dan says, a bit grumpy. But you're not the actor we're paying attention to in this scene, Dan, Jane tells him. Then, trying to help, she says, come on, be a pal. Say something nice to Franny about her new job. Dan thinks for a second, then says, the dialogue isn't bad, although too many sentences start with well.",Why is Dan grumpy?,A. Because he is hungry,B. Because he doesn't like reading,C. Because he has to read out loud,D. Because he doesn't have enough time to help the narrator,C. Because he has to read out loud,yes,12.2725625,,,,,,,,,,,,,0,38,38,38,0,0,0,0,0,0,0,0,1441.1381825839999,,,,,,,,,,,,1417.790780999996,1417.806235708664,1417.8090180419968,1430.0763286250003,1430.0808294999952,1430.0920403339987,1430.2941587499954,1430.2941587499954,1434.2354970419983,1434.849032541999,6.516666666666667,4.115354875000776,1,[0.6268911660008598],[0.626893332999316],,,,,,,,,,1441.129055749996,1441.1381825839999,1456.1216727499996,"be of help, Dan, Jane",,,,,,,,,,,,,,,1456.141065459,,,,,,,,1415.2056838749995,1415.217963916999,1415.217963916999,1415.217963916999,1417.7905358339995,1,[2.58433162500296],[2.5843342920052237],1434.8495117499988,1434.855335291999,1434.855335291999,1434.855335291999,1441.1281152090014,1,[6.277797875001852],[6.277800500000012],0,,,p_1,001,2024-03-08_12h32.06.988,speech_rate,2023.2.3,None,2024-03-08 12h36.04.945311 -0800,
,Someday_138_condition-3x.wav,Someday__Someday__Maybe__Unabridged___File_080_of_116_1.wav,"The page is practically touching his glasses, so I can't exactly see his reaction. Dan, I say, what do you think? I mean, the script isn't too terrible, right? I was distracted by having to read it out loud, Dan says, a bit grumpy. But you're not the actor we're paying attention to in this scene, Dan, Jane tells him. Then, trying to help, she says, come on, be a pal. Say something nice to Franny about her new job. Dan thinks for a second, then says, the dialogue isn't bad, although too many sentences start with well.",Why is Dan grumpy?,A. Because he is hungry,B. Because he doesn't like reading,C. Because he has to read out loud,D. Because he doesn't have enough time to help the narrator,C. Because he has to read out loud,yes,12.2725625,,,,,,,,,,,,,0,38,38,38,0,0,0,0,,,,,,,,,,,,,,,,,,,,,,,,,,,,,,,,,,,,,,,,,,,,,,,,,,,,,,,,,,,,,,,,,,,,,,,,,,,,,,,,,,,,,,p_1,001,2024-03-08_12h32.06.988,speech_rate,2023.2.3,None,2024-03-08 12h36.04.945311 -0800,
,Someday_138_condition-3x.wav,Someday__Someday__Maybe__Unabridged___File_080_of_116_1.wav,"The page is practically touching his glasses, so I can't exactly see his reaction. Dan, I say, what do you think? I mean, the script isn't too terrible, right? I was distracted by having to read it out loud, Dan says, a bit grumpy. But you're not the actor we're paying attention to in this scene, Dan, Jane tells him. Then, trying to help, she says, come on, be a pal. Say something nice to Franny about her new job. Dan thinks for a second, then says, the dialogue isn't bad, although too many sentences start with well.",Why is Dan grumpy?,A. Because he is hungry,B. Because he doesn't like reading,C. Because he has to read out loud,D. Because he doesn't have enough time to help the narrator,C. Because he has to read out loud,yes,12.2725625,,,,,,,,,,,,,0,38,38,38,,,,,,,,,,,,,,,,,,,,,,,,,,,,,,,,,,,,,,,,,,,,,,,,,1456.121922541999,1464.7627618749975,0,,,0,,,1,8.631459208998422,8.631462291996286,0,,,,,,,,,,,,,,,,,,,,,,,,,,,,,,p_1,001,2024-03-08_12h32.06.988,speech_rate,2023.2.3,None,2024-03-08 12h36.04.945311 -0800,
,Someday_51_condition-3x.wav,Someday__Someday__Maybe__Unabridged___File_025_of_116_4.wav,And he says Dina pauses as if the next part of the story is particularly hard to tell And he says only two things will happen with this One it's a giant hit and you're thanking me every year at the Emmys Or two they'll make the pilot it won't work it'll never air There's no scenario in between If for some reason they put this on the air and it isn't 100 fantastic he said it'll never last Dina and Leighton say together Then Dina slaps her palm to her forehead as if she still can't believe it,What does Dina do after telling the story?,A. She shakes her head,B. She slaps her palm to her forehead,C. She cries,D. She sits in silence,B. She slaps her palm to her forehead,no,11.23875,,,,,,,,,,,,,0,39,39,39,,,,,,,,,1464.769514833999,,,,,,,,,,,,1465.545155959,1465.5611193336629,1465.5614919590007,1476.7959812089975,1476.8060289169953,1476.8172458749978,1477.0543853339987,1477.0543853339987,1478.5659174169996,1479.1733260839974,8.95,1.7215552079942427,1,[0.6168663330026902],[0.6168687079989468],,,,,,,,,,,,,,1479.1737726669962,1481.9559137089964,0,,,1,2.7737794579952606,2.7737830830010353,0,,,0,,,,,,,,,,,1464.7631972089948,1464.769514833999,1464.769514833999,1464.769514833999,1465.5449732089983,1,[0.7803362919948995],[0.7803394579968881],,,,,,,,,,,,p_1,001,2024-03-08_12h32.06.988,speech_rate,2023.2.3,None,2024-03-08 12h36.04.945311 -0800,
,Someday_18_condition.wav,Someday__Someday__Maybe__Unabridged___File_011_of_116_1.wav,The D train between Brooklyn and Manhattan is one of my favorite lines because at one the train emerges from underground and goes high over the river along the Manhattan Bridge Sometimes I put on my headphones and listen to music Sometimes I do the New York Times crossword puzzle And sometimes I read But no matter what else I'm doing I consider it very bad luck if I forget to look up as the train crosses over the East River even just for a second before it goes back underground It's just a superstition,Why does the narrator always look up when the D train crosses the East River?,A. To enjoy the view,B. To avoid bad luck,C. To read the subway signs,D. To see if it's raining,B. To avoid bad luck,no,28.04,,,,,,,,,,,,,0,40,40,40,,,,,,,,,1481.9629621249987,,,,,,,,,,,,1482.7816975419992,1482.8141885833325,1482.8121544999958,1510.8580005839976,1510.8602002089974,1510.8806517919948,1511.0809343750007,1511.0809343750007,1513.2565364999973,1513.847638416999,10,2.3484434580022935,1,[0.6035759580045124],[0.6035788330045762],,,,,,,,,,,,,,1513.8481018339953,1515.8607949590005,0,,,1,2.004135833005421,2.0041400830014027,0,,,0,,,,,,,,,,,1481.9564317089971,1481.9629621249987,1481.9629621249987,1481.9629621249987,1482.7815050419958,1,[0.8234936250009923],[0.8234968329998082],,,,,,,,,,,,p_1,001,2024-03-08_12h32.06.988,speech_rate,2023.2.3,None,2024-03-08 12h36.04.945311 -0800,
,Someday_126_condition-3x.wav,Someday__Someday__Maybe__Unabridged___File_055_of_116_1.wav,What luck maybe this is going to be okay Maybe I'm not repulsive and mushy after all I'm a genius who has been in studious self imposed exile whilst honing my craft waiting for this day to come with patience and nobility It was meant to be Yes I know it I know it a little too well actually Great then just get over there as quickly as you can They're closing the session at 2 p m I'll fax you the sides and the appointment info Just call us with any questions and break a leg,What is the narrator's attitude towards her own preparation and opportunity?,A. Uncertain and self-critical about her appearance and skills,B. Confident and self-assured about the effort put into her craft,C. Indifferent and unprepared for the upcoming opportunity,D. Overwhelmed and doubtful about meeting the appointment on time,B. Confident and self-assured about the effort put into her craft,no,10.67559375,,,,,,,,,,,,,0,41,41,41,,,,,,,,,1515.874135041995,,,,,,,,,,,,1518.598144167001,1518.6141018756646,1518.6150449999986,1529.2919457089956,1529.2937452920014,1529.3041108339967,1529.510397291997,1529.510397291997,1531.0510676669946,1531.6156380839966,7.208333333333334,1.7210663339938037,1,[0.5738055830006488],[0.573807916000078],,,,,,,,,,,,,,1531.6160502089988,1536.5192152089949,0,,,1,4.891160541999852,4.891164041997399,0,,,0,,,,,,,,,,,1515.861354959001,1515.874135041995,1515.874135041995,1515.874135041995,1518.5979564590016,1,[2.736111499994877],[2.7361139159984305],,,,,,,,,,,,p_1,001,2024-03-08_12h32.06.988,speech_rate,2023.2.3,None,2024-03-08 12h36.04.945311 -0800,
