index,wav_file,old_name,segment_text,question,C1,C2,C3,C4,C_correct,summary,duration,training.thisRepN,training.thisTrialN,training.thisN,training.thisIndex,sum_true.thisRepN,sum_true.thisTrialN,sum_true.thisN,sum_true.thisIndex,dummy_loop.thisRepN,dummy_loop.thisTrialN,dummy_loop.thisN,dummy_loop.thisIndex,experiment.thisRepN,experiment.thisTrialN,experiment.thisN,experiment.thisIndex,sum_true_exp.thisRepN,sum_true_exp.thisTrialN,sum_true_exp.thisN,sum_true_exp.thisIndex,dummy_loop_exp.thisRepN,dummy_loop_exp.thisTrialN,dummy_loop_exp.thisN,dummy_loop_exp.thisIndex,thisRow.t,notes,Experimenter.started,reminder.started,Experimenter.stopped,Instructions.started,Instructions.stopped,Start_Segment_Train.started,Play_train.started,Trial_counter_train.started,text_5.started,Start_Segment_Train.stopped,Play_train.numClicks,Play_train.timesOn,Play_train.timesOff,Training_Segment.started,Experimen_audio.started,polygon.started,polygon.stopped,Training_Segment.stopped,Rating.started,slider.started,text_3.started,button_2.started,Rating.stopped,slider.response,slider.rt,button_2.numClicks,button_2.timesOn,button_2.timesOff,Start_Summary.started,text_2.started,Start_Summary.stopped,summary_button.numClicks,summary_button.timesOn,summary_button.timesOff,Summary.started,textbox.started,summary_done.started,Summary.stopped,textbox.text,summary_done.numClicks,summary_done.timesOn,summary_done.timesOff,Multiple_Choice_2.started,Multiple_Choice_2.stopped,A.numClicks,A.timesOn,A.timesOff,B.numClicks,B.timesOn,B.timesOff,C.numClicks,C.timesOn,C.timesOff,D.numClicks,D.timesOn,D.timesOff,Start_Exp.started,Start_exp.started,Start.started,Start_Exp.stopped,Start.numClicks,Start.timesOn,Start.timesOff,Start_Segment.started,Play.started,Trial_counter.started,text_6.started,Start_Segment.stopped,Play.numClicks,Play.timesOn,Play.timesOff,Start_Sum_Exp.started,text_4.started,Start_Sum_Exp.stopped,sum_button.numClicks,sum_button.timesOn,sum_button.timesOff,textbox.stopped,summary_done.stopped,Thanks.started,text_7.started,text_7.stopped,Thanks.stopped,participant,session,date,expName,psychopyVersion,frameRate,expStart,
1,Someday_trial_condition.wav,Someday__Someday__Maybe__Unabridged___File_069_of_116_3.wav,It's a gut feeling You can't nickname him He's a real person not a joke person You don't have to tell me Only a real person would try to shake hands with my best friend's foot Jane you're not explaining it right It was very romantic And thankfully our steaming bowl of bright yellow melted cheese with flecks of green chilies arrives Listen she says dipping a chip into the creamy depths You're the one with the brand new personality I'm still the same old Jane,"What does the narrator have, according to Jane?",A) A new recipe for dipping sauce,B) A new personality,C) A new restaurant suggestion,D) A new pair of shoes,B) A new personality,yes,30,0,0,0,0,0,0,0,0,0,0,0,0,,,,,,,,,,,,,83.79600387499977,,0.010938291999991634,0.04116720799993345,2.4102018749999843,2.410212166999372,44.832395041999916,44.84262312499959,44.86051212499933,44.86051212499933,44.86051212499933,47.14717429199936,1,[2.294053208999685],[2.29406683399975],47.148648957999285,47.194975166999754,47.199169582999275,77.21455004199925,77.18623641699924,77.2068576669999,77.43429174999983,77.43429174999983,81.19804129199929,82.03136591699968,10,3.9664675829999396,1,[0.8429326249997757],[0.842935208000199],82.03202287499971,82.03766766699937,83.74764824999966,1,[1.7149392500004979],[1.7149501670000973],83.74859874999947,83.79600387499977,83.79600387499977,113.75368174999949,"They were discussing a man who was odd, tried to shake hands with  jane's foot in a "romantic way"? they were eating nachoes with creamy cheese dip",0,,,,,,,,,,,,,,,,,,,,,,,,,,,,,,,,,,,,,,,,,,,,p_3,001,2024-05-04_11h56.23.373,speech_rate,2023.2.3,None,2024-05-04 11h56.35.950509 -0700,
1,Someday_trial_condition.wav,Someday__Someday__Maybe__Unabridged___File_069_of_116_3.wav,It's a gut feeling You can't nickname him He's a real person not a joke person You don't have to tell me Only a real person would try to shake hands with my best friend's foot Jane you're not explaining it right It was very romantic And thankfully our steaming bowl of bright yellow melted cheese with flecks of green chilies arrives Listen she says dipping a chip into the creamy depths You're the one with the brand new personality I'm still the same old Jane,"What does the narrator have, according to Jane?",A) A new recipe for dipping sauce,B) A new personality,C) A new restaurant suggestion,D) A new pair of shoes,B) A new personality,yes,30,0,0,0,0,0,0,0,0,,,,,,,,,,,,,,,,,,,,,,,,,,,,,,,,,,,,,,,,,,,,,,,,,,,,,,,,,,,,,,,,,,,,,,,,,,,,,,,,,,,,,,,,,,,,,,,,,,,,,,p_3,001,2024-05-04_11h56.23.373,speech_rate,2023.2.3,None,2024-05-04 11h56.35.950509 -0700,
1,Someday_trial_condition.wav,Someday__Someday__Maybe__Unabridged___File_069_of_116_3.wav,It's a gut feeling You can't nickname him He's a real person not a joke person You don't have to tell me Only a real person would try to shake hands with my best friend's foot Jane you're not explaining it right It was very romantic And thankfully our steaming bowl of bright yellow melted cheese with flecks of green chilies arrives Listen she says dipping a chip into the creamy depths You're the one with the brand new personality I'm still the same old Jane,"What does the narrator have, according to Jane?",A) A new recipe for dipping sauce,B) A new personality,C) A new restaurant suggestion,D) A new pair of shoes,B) A new personality,yes,30,0,0,0,0,,,,,,,,,,,,,,,,,,,,,,,,,,,,,,,,,,,,,,,,,,,,,,,,,,,,,,,,,,,,,,,,,113.75416150000001,120.55601029199988,0,,,1,6.781347375000223,6.781350416999885,0,,,0,,,,,,,,,,,,,,,,,,,,,,,,,,,,,,p_3,001,2024-05-04_11h56.23.373,speech_rate,2023.2.3,None,2024-05-04 11h56.35.950509 -0700,
2,Someday_trial_condition-5x.wav,Someday__Someday__Maybe__Unabridged___File_103_of_116_1.wav,Isn't halfway where two people usually meet Well in general maybe But tonight this is sort of a big deal for me It's my night I'm not sure you you don't think I get it Well no I mean how could you I'm having trouble making sense of this conversation James is speaking with authority but there's something wrong Something feels so wrong somehow I don't care about waving and smiling and having my picture taken with him,"How does James speak, according to the narrator?",A) With compassion,B) With grief,C) With hesitation,D) With authority,D) With authority,yes,6.2,0,1,1,1,0,0,0,0,0,0,0,0,,,,,,,,,,,,,136.48285983299957,,,,,,,120.5567984169993,120.56513300000006,120.56513300000006,120.56513300000006,125.28328599999986,1,[4.723262292000072],[4.723265542000263],125.2835471669996,125.29905712466667,125.29749349999929,131.5024176249999,131.4835229579994,131.49453504199937,131.75531574999968,131.75531574999968,133.34847141699993,134.19471379199967,1,1.8137874589992862,1,[0.871353624999756],[0.8713568339999256],134.19525466699997,134.2001690419993,136.45321308299935,1,[2.2574045000001206],[2.257410167000671],136.45408770799986,136.48285983299957,136.48285983299957,137.30069712499972,,1,[0.842325582999365],[0.8423287909999999],,,,,,,,,,,,,,,,,,,,,,,,,,,,,,,,,,,,,,,,,,p_3,001,2024-05-04_11h56.23.373,speech_rate,2023.2.3,None,2024-05-04 11h56.35.950509 -0700,
2,Someday_trial_condition-5x.wav,Someday__Someday__Maybe__Unabridged___File_103_of_116_1.wav,Isn't halfway where two people usually meet Well in general maybe But tonight this is sort of a big deal for me It's my night I'm not sure you you don't think I get it Well no I mean how could you I'm having trouble making sense of this conversation James is speaking with authority but there's something wrong Something feels so wrong somehow I don't care about waving and smiling and having my picture taken with him,"How does James speak, according to the narrator?",A) With compassion,B) With grief,C) With hesitation,D) With authority,D) With authority,yes,6.2,0,1,1,1,0,0,0,0,,,,,,,,,,,,,,,,,,,,,,,,,,,,,,,,,,,,,,,,,,,,,,,,,,,,,,,,,,,,,,,,,,,,,,,,,,,,,,,,,,,,,,,,,,,,,,,,,,,,,,p_3,001,2024-05-04_11h56.23.373,speech_rate,2023.2.3,None,2024-05-04 11h56.35.950509 -0700,
2,Someday_trial_condition-5x.wav,Someday__Someday__Maybe__Unabridged___File_103_of_116_1.wav,Isn't halfway where two people usually meet Well in general maybe But tonight this is sort of a big deal for me It's my night I'm not sure you you don't think I get it Well no I mean how could you I'm having trouble making sense of this conversation James is speaking with authority but there's something wrong Something feels so wrong somehow I don't care about waving and smiling and having my picture taken with him,"How does James speak, according to the narrator?",A) With compassion,B) With grief,C) With hesitation,D) With authority,D) With authority,yes,6.2,0,1,1,1,,,,,,,,,,,,,,,,,,,,,,,,,,,,,,,,,,,,,,,,,,,,,,,,,,,,,,,,,,,,,,,,,137.3010952499999,148.8193331249995,0,,,1,11.508128583000143,11.50813187499989,0,,,0,,,,,,,,,,,,,,,,,,,,,,,,,,,,,,p_3,001,2024-05-04_11h56.23.373,speech_rate,2023.2.3,None,2024-05-04 11h56.35.950509 -0700,
,Someday_46_condition-2x.wav,Someday__Someday__Maybe__Unabridged___File_024_of_116_2.wav,I almost quit show business tonight I say a little breathless still astonished to have gone from complete despair to something like euphoria in such a short time Again You just quit two weeks ago I did You're a sensitive kid she says laughing That's okay you'll get tougher Let's have non farewell to show business drinks instead I'm meeting Leighton at Joe Allen Want to join Dina and I sit at the glossy wood bar at Joe Allen crowded with actors whose shows have just let out and patrons who've come from the theater,What is Dina inviting the narrator to?,A. Tea at her place,B. Drinks at a bar,C. Dinner at a restaurant,D. Party at an actor's house,B. Drinks at a bar,no,14.95,,,,,,,,,,,,,0,0,0,0,,,,,,,,,164.33581874999982,,,,,,,,,,,,,,,165.65273849999994,165.68474700033272,165.67528816699996,180.6359532919996,180.6370610419999,180.6482882499995,180.85671962499964,180.85671962499964,183.22951216699948,186.94217062499956,8.966666666666667,2.553013290999843,1,[3.7218722500001604],[3.7218750830006684],,,,,,,,,,,,,,,186.9428694999997,189.98869458299941,0,,,1,3.0360593329996846,3.0360627499994735,0,,,0,,,148.81977945799918,148.8333242079998,148.8333242079998,164.1891273329993,1,[15.36808183300036],[15.36809833299958],164.32401691699943,164.33581874999982,164.33581874999982,164.33581874999982,165.65232029199979,1,[1.3240279999999984],[1.3240313750002315],,,,,,,,,,,,,p_3,001,2024-05-04_11h56.23.373,speech_rate,2023.2.3,None,2024-05-04 11h56.35.950509 -0700,
,Someday_40_condition-4x.wav,Someday__Someday__Maybe__Unabridged___File_021_of_116_3.wav,Aren't you cold It's James Franklin the last person I want to see right now Nothing could make me feel worse after what happened tonight than to be reminded that a guy I gushed all over got my phone number but never called me Even after I learned that he and Penelope were some sort of couple I held my breath every day for the last two weeks while waiting for the machine to rewind hoping he'd left a message but he never did James smiles at me and stamps his feet rubbing his hands together and blowing on them,Why does the narrator feel embarrassed to see James Franklin?,A. Because he got her phone number but never called,B. Because he is dating Penelope,C. Because he reminds her of a bad experience,D. Because he is unfriendly,A. Because he got her phone number but never called,yes,7.0725,,,,,,,,,,,,,0,1,1,1,0,0,0,0,0,0,0,0,205.23704154200004,,,,,,,,,,,,,,,191.92648474999987,191.94203224966648,191.94060720800007,199.00671599999987,199.02105995799957,199.03229549999924,199.24067945799925,199.24067945799925,201.44694895799967,203.67135433299973,3.033333333333333,3.799892541999725,1,[2.2337322080002195],[2.23373491700022],,,,,,,205.22549866699956,205.23704154200004,205.23704154200004,215.55359579199921,"government, invited for cheese and wine?",1,[10.324883750000481],[10.324887249999847],,,,,,,,,,,,,,,,,,,,,,189.98979858299936,190.00236499999937,190.00236499999937,190.00236499999937,191.92625299999963,1,[1.9349712499997622],[1.9349747500000376],203.6718833749992,203.6774811669993,205.22491379199982,1,[1.5524032920002355],[1.5524062920003416],,,,,,,p_3,001,2024-05-04_11h56.23.373,speech_rate,2023.2.3,None,2024-05-04 11h56.35.950509 -0700,
,Someday_40_condition-4x.wav,Someday__Someday__Maybe__Unabridged___File_021_of_116_3.wav,Aren't you cold It's James Franklin the last person I want to see right now Nothing could make me feel worse after what happened tonight than to be reminded that a guy I gushed all over got my phone number but never called me Even after I learned that he and Penelope were some sort of couple I held my breath every day for the last two weeks while waiting for the machine to rewind hoping he'd left a message but he never did James smiles at me and stamps his feet rubbing his hands together and blowing on them,Why does the narrator feel embarrassed to see James Franklin?,A. Because he got her phone number but never called,B. Because he is dating Penelope,C. Because he reminds her of a bad experience,D. Because he is unfriendly,A. Because he got her phone number but never called,yes,7.0725,,,,,,,,,,,,,0,1,1,1,0,0,0,0,,,,,,,,,,,,,,,,,,,,,,,,,,,,,,,,,,,,,,,,,,,,,,,,,,,,,,,,,,,,,,,,,,,,,,,,,,,,,,,,,,,,,,,,,,p_3,001,2024-05-04_11h56.23.373,speech_rate,2023.2.3,None,2024-05-04 11h56.35.950509 -0700,
,Someday_40_condition-4x.wav,Someday__Someday__Maybe__Unabridged___File_021_of_116_3.wav,Aren't you cold It's James Franklin the last person I want to see right now Nothing could make me feel worse after what happened tonight than to be reminded that a guy I gushed all over got my phone number but never called me Even after I learned that he and Penelope were some sort of couple I held my breath every day for the last two weeks while waiting for the machine to rewind hoping he'd left a message but he never did James smiles at me and stamps his feet rubbing his hands together and blowing on them,Why does the narrator feel embarrassed to see James Franklin?,A. Because he got her phone number but never called,B. Because he is dating Penelope,C. Because he reminds her of a bad experience,D. Because he is unfriendly,A. Because he got her phone number but never called,yes,7.0725,,,,,,,,,,,,,0,1,1,1,,,,,,,,,,,,,,,,,,,,,,,,,,,,,,,,,,,,,,,,,,,,,,,,,,,,,215.5540700419997,222.95535370800008,0,,,0,,,1,7.389240833000258,7.389244208000491,0,,,,,,,,,,,,,,,,,,,,,,,,,,,,,,p_3,001,2024-05-04_11h56.23.373,speech_rate,2023.2.3,None,2024-05-04 11h56.35.950509 -0700,
,Someday_115_condition-3x.wav,Someday__Someday__Maybe__Unabridged___File_051_of_116_2.wav,All those people can't just be walking around starving and happening to look great all the time They must know something that the rest of us don't Or worse maybe there isn't a trick Maybe they are walking around hungry all the time Maybe that's the difference between being successful or unsuccessful Maybe I'm too weak I'm too concerned with feeling good to be willing to feel as bad as I should to be successful Why would feeling good be bad People spend their lives trying to feel good You're not supposed to walk around miserable all the time,What is the narrator's concern about the successful people she sees?,A. They are always happy,B. They are always starving themselves,C. They know a secret for good acting,D. They are too weak to succeed,B. They are always starving themselves,yes,11.0775,,,,,,,,,,,,,0,2,2,2,0,0,0,0,0,0,0,0,239.73506129199995,,,,,,,,,,,,,,,224.9081331669995,224.92160412466663,224.92429945799995,236.0057232499994,236.0069539999995,236.01820329199927,236.24303566699928,236.24303566699928,238.11576416699972,238.69434954200005,9.008333333333333,2.0702200830000947,1,[0.5882144999995944],[0.5882170830000177],,,,,,,239.72368041699974,239.73506129199995,239.73506129199995,265.8915998329994,"Wondering why people are walking around feeling good, thinking they must know something she doesn't. She feels bad a lot, and thinks that if other people are like her they should too. ",1,[26.164886458999717],[26.164889666999443],,,,,,,,,,,,,,,,,,,,,,222.9558851669999,222.96270470799936,222.96270470799936,222.96270470799936,224.90731287499966,1,[1.949024417000146],[1.9490429170000425],238.69483262499944,238.70414229199923,239.72305787499954,1,[1.0278250839992324],[1.0278282089993809],,,,,,,p_3,001,2024-05-04_11h56.23.373,speech_rate,2023.2.3,None,2024-05-04 11h56.35.950509 -0700,
,Someday_115_condition-3x.wav,Someday__Someday__Maybe__Unabridged___File_051_of_116_2.wav,All those people can't just be walking around starving and happening to look great all the time They must know something that the rest of us don't Or worse maybe there isn't a trick Maybe they are walking around hungry all the time Maybe that's the difference between being successful or unsuccessful Maybe I'm too weak I'm too concerned with feeling good to be willing to feel as bad as I should to be successful Why would feeling good be bad People spend their lives trying to feel good You're not supposed to walk around miserable all the time,What is the narrator's concern about the successful people she sees?,A. They are always happy,B. They are always starving themselves,C. They know a secret for good acting,D. They are too weak to succeed,B. They are always starving themselves,yes,11.0775,,,,,,,,,,,,,0,2,2,2,0,0,0,0,,,,,,,,,,,,,,,,,,,,,,,,,,,,,,,,,,,,,,,,,,,,,,,,,,,,,,,,,,,,,,,,,,,,,,,,,,,,,,,,,,,,,,,,,,p_3,001,2024-05-04_11h56.23.373,speech_rate,2023.2.3,None,2024-05-04 11h56.35.950509 -0700,
,Someday_115_condition-3x.wav,Someday__Someday__Maybe__Unabridged___File_051_of_116_2.wav,All those people can't just be walking around starving and happening to look great all the time They must know something that the rest of us don't Or worse maybe there isn't a trick Maybe they are walking around hungry all the time Maybe that's the difference between being successful or unsuccessful Maybe I'm too weak I'm too concerned with feeling good to be willing to feel as bad as I should to be successful Why would feeling good be bad People spend their lives trying to feel good You're not supposed to walk around miserable all the time,What is the narrator's concern about the successful people she sees?,A. They are always happy,B. They are always starving themselves,C. They know a secret for good acting,D. They are too weak to succeed,B. They are always starving themselves,yes,11.0775,,,,,,,,,,,,,0,2,2,2,,,,,,,,,,,,,,,,,,,,,,,,,,,,,,,,,,,,,,,,,,,,,,,,,,,,,265.8920549579998,268.80910799999947,1,2.906963125000402,2.9069658750004237,0,,,0,,,0,,,,,,,,,,,,,,,,,,,,,,,,,,,,,,p_3,001,2024-05-04_11h56.23.373,speech_rate,2023.2.3,None,2024-05-04 11h56.35.950509 -0700,
,Someday_3_condition-5x.wav,Someday__Someday__Maybe__Unabridged___File_005_of_116_1.wav,I suppose I did but I'm still too groggy to focus on the details Normally I would have asked our other roommate my best friend Jane but she's been working nights as a PA on that new Russell Blakely movie Since Dan moved into the bedroom downstairs a few months ago I haven't noticed much about him except how unnecessarily tall he is how many hours he spends writing at the computer and the intense fear he seems to have about coming upon either of us when we're not decent Dan come in You're decent,What is the main reason the narrator doesn't ask their roommate Jane for help?,A. Jane is too busy working,B. Jane is not a good friend,C. The narrator doesn't trust Jane,D. The narrator prefers not to talk to anyone,A. Jane is too busy working,yes,5.934,,,,,,,,,,,,,0,3,3,3,0,0,0,0,0,0,0,0,281.6960494999994,,,,,,,,,,,,,,,270.94172691699987,270.9573334166664,270.9537344169994,276.8799572499993,276.892227542,276.90290662499956,277.1611944999995,277.1611944999995,279.7464181669993,280.34673920799924,1,2.8177367079997566,1,[0.6094674999994822],[0.6094701659994826],,,,,,,281.68476570799976,281.6960494999994,281.6960494999994,295.2593474999994,""Details", "understand"",1,[13.57145329099967],[13.571456665999904],,,,,,,,,,,,,,,,,,,,,,268.8096214999996,268.82311387499976,268.82311387499976,268.82311387499976,270.9414933329999,1,[2.1314625420000084],[2.131465499999649],280.3472286669994,280.3568358749999,281.6839741249996,1,[1.3362511249997624],[1.3362540830003127],,,,,,,p_3,001,2024-05-04_11h56.23.373,speech_rate,2023.2.3,None,2024-05-04 11h56.35.950509 -0700,
,Someday_3_condition-5x.wav,Someday__Someday__Maybe__Unabridged___File_005_of_116_1.wav,I suppose I did but I'm still too groggy to focus on the details Normally I would have asked our other roommate my best friend Jane but she's been working nights as a PA on that new Russell Blakely movie Since Dan moved into the bedroom downstairs a few months ago I haven't noticed much about him except how unnecessarily tall he is how many hours he spends writing at the computer and the intense fear he seems to have about coming upon either of us when we're not decent Dan come in You're decent,What is the main reason the narrator doesn't ask their roommate Jane for help?,A. Jane is too busy working,B. Jane is not a good friend,C. The narrator doesn't trust Jane,D. The narrator prefers not to talk to anyone,A. Jane is too busy working,yes,5.934,,,,,,,,,,,,,0,3,3,3,0,0,0,0,,,,,,,,,,,,,,,,,,,,,,,,,,,,,,,,,,,,,,,,,,,,,,,,,,,,,,,,,,,,,,,,,,,,,,,,,,,,,,,,,,,,,,,,,,p_3,001,2024-05-04_11h56.23.373,speech_rate,2023.2.3,None,2024-05-04 11h56.35.950509 -0700,
,Someday_3_condition-5x.wav,Someday__Someday__Maybe__Unabridged___File_005_of_116_1.wav,I suppose I did but I'm still too groggy to focus on the details Normally I would have asked our other roommate my best friend Jane but she's been working nights as a PA on that new Russell Blakely movie Since Dan moved into the bedroom downstairs a few months ago I haven't noticed much about him except how unnecessarily tall he is how many hours he spends writing at the computer and the intense fear he seems to have about coming upon either of us when we're not decent Dan come in You're decent,What is the main reason the narrator doesn't ask their roommate Jane for help?,A. Jane is too busy working,B. Jane is not a good friend,C. The narrator doesn't trust Jane,D. The narrator prefers not to talk to anyone,A. Jane is too busy working,yes,5.934,,,,,,,,,,,,,0,3,3,3,,,,,,,,,,,,,,,,,,,,,,,,,,,,,,,,,,,,,,,,,,,,,,,,,,,,,295.2598402499998,303.2283088329996,1,7.958244292000018,7.958247167000081,0,,,0,,,0,,,,,,,,,,,,,,,,,,,,,,,,,,,,,,p_3,001,2024-05-04_11h56.23.373,speech_rate,2023.2.3,None,2024-05-04 11h56.35.950509 -0700,
,Someday_98_condition-5x.wav,Someday__Someday__Maybe__Unabridged___File_044_of_116_0.wav,Yes Laughing girl has no lines She just laughs She just so there's no scene Nope She's a girl She laughs They want a funny laugher That's it Take a seat They'll be with you in a minute I squeeze onto the lumpy sofa next to a skinny brunette wearing high heeled black boots and funky glasses I should wear high heeled boots instead of Doc Martens I think to myself as I break into a nervous sweat I should get some funky glasses I should have a funny laugh,What is the role that the narrator is auditioning for?,A. A dramatic lead,B. A character with no lines,C. A comedy writer,D. A serious actress,B. A character with no lines,no,5.832,,,,,,,,,,,,,0,4,4,4,,,,,,,,,303.24194720800006,,,,,,,,,,,,,,,305.69761062499947,305.71024491666617,305.71073541699934,311.53286491699964,311.54456237499926,311.55581574999997,311.7894902499993,311.7894902499993,313.3702133329998,314.64327929199953,1.025,1.7890372080000816,1,[1.2825531670005148],[1.2825632500007487],,,,,,,,,,,,,,,314.6437294999996,320.6616389999999,0,,,0,,,1,6.009808957999667,6.009812708000027,0,,,,,,,,,,303.22882949999985,303.24194720800006,303.24194720800006,303.24194720800006,305.6973357499992,1,[2.4660839999996824],[2.466098707999663],,,,,,,,,,,,,p_3,001,2024-05-04_11h56.23.373,speech_rate,2023.2.3,None,2024-05-04 11h56.35.950509 -0700,
,Someday_91_condition.wav,Someday__Someday__Maybe__Unabridged___File_040_of_116_0.wav,Please go ahead and begin your monologue whenever you're ready We can chat afterwards Take your time His words are encouraging but his face is neutral at best And when there are two people in a room and one of them is there purely to see the other person do something the notion that that person could actually take their time seems ridiculous But I try I try to take a deep breath but the air gets sort of stuck and doesn't go all the way down to my lungs I need a minute to calm down but I can't possibly take it,What is the narrator's reaction to the suggestion to take her time?,A. She feels comforted,B. She finds it ridiculous,C. She rejects the offer,D. She chats with the agent first,B. She finds it ridiculous,no,28.53996875,,,,,,,,,,,,,0,5,5,5,,,,,,,,,320.6706023329998,,,,,,,,,,,,,,,323.24479387499923,323.27699516633265,323.2774162079995,351.8225337499998,351.82336654199935,351.84483154200007,352.04882,352.04882,354.4465144579999,355.5806125829995,9.966666666666667,3.010531791000176,1,[1.1436460409995561],[1.1436486249995141],,,,,,,,,,,,,,,355.58105808299933,362.5198609579993,0,,,1,6.9285748749998675,6.928578125000058,0,,,0,,,,,,,,,,320.6622080829993,320.6706023329998,320.6706023329998,320.6706023329998,323.2445214579993,1,[2.580071291000422],[2.580074333000084],,,,,,,,,,,,,p_3,001,2024-05-04_11h56.23.373,speech_rate,2023.2.3,None,2024-05-04 11h56.35.950509 -0700,
,Someday_7_condition-5x.wav,Someday__Someday__Maybe__Unabridged___File_007_of_116_0.wav,You start out with a three year goal which then becomes a five year goal and before you know it you're still calling yourself an actor but most days you're being assigned a locker outside the cafeteria of the General Electric building so you can change into a borrowed pink polyester lunch lady uniform and serve lukewarm lasagna to a bunch of businessmen who call you excuse me I've made some progress but not enough to tell me for sure that I'm doing the right thing with my life It took most of the first year just to get the coveted waitressing job at the comedy club,What endeavor consumed most of the first year for the narrator?,A. Becoming a successful actress,B. Getting a job at General Electric,C. Getting a waitressing job,D. Becoming a comedian,C. Getting a waitressing job,yes,5.786,,,,,,,,,,,,,0,6,6,6,0,0,0,0,0,0,0,0,376.6816757079996,,,,,,,,,,,,,,,364.82281216699994,364.83828279166596,364.8342736249997,370.6301333329993,370.63234120800007,370.6435669169996,370.8489447919992,370.8489447919992,373.0686687079997,375.4189907079999,2.033333333333333,3.94689308299985,1,[2.3596485830003076],[2.359651250000752],,,,,,,376.6706549169994,376.6816757079996,376.6816757079996,392.4892464579998,"Excuse me" she is either talking to someone or ran into someone?,1,[15.81556350000028],[15.815566875000513],,,,,,,,,,,,,,,,,,,,,,362.52031958299995,362.52740291699956,362.52740291699956,362.52740291699956,364.822561125,1,[2.3003775409997615],[2.300380749999931],375.41946087499946,375.4292220419993,376.66989654200006,1,[1.2500100420002127],[1.2500132499999381],,,,,,,p_3,001,2024-05-04_11h56.23.373,speech_rate,2023.2.3,None,2024-05-04 11h56.35.950509 -0700,
,Someday_7_condition-5x.wav,Someday__Someday__Maybe__Unabridged___File_007_of_116_0.wav,You start out with a three year goal which then becomes a five year goal and before you know it you're still calling yourself an actor but most days you're being assigned a locker outside the cafeteria of the General Electric building so you can change into a borrowed pink polyester lunch lady uniform and serve lukewarm lasagna to a bunch of businessmen who call you excuse me I've made some progress but not enough to tell me for sure that I'm doing the right thing with my life It took most of the first year just to get the coveted waitressing job at the comedy club,What endeavor consumed most of the first year for the narrator?,A. Becoming a successful actress,B. Getting a job at General Electric,C. Getting a waitressing job,D. Becoming a comedian,C. Getting a waitressing job,yes,5.786,,,,,,,,,,,,,0,6,6,6,0,0,0,0,,,,,,,,,,,,,,,,,,,,,,,,,,,,,,,,,,,,,,,,,,,,,,,,,,,,,,,,,,,,,,,,,,,,,,,,,,,,,,,,,,,,,,,,,,p_3,001,2024-05-04_11h56.23.373,speech_rate,2023.2.3,None,2024-05-04 11h56.35.950509 -0700,
,Someday_7_condition-5x.wav,Someday__Someday__Maybe__Unabridged___File_007_of_116_0.wav,You start out with a three year goal which then becomes a five year goal and before you know it you're still calling yourself an actor but most days you're being assigned a locker outside the cafeteria of the General Electric building so you can change into a borrowed pink polyester lunch lady uniform and serve lukewarm lasagna to a bunch of businessmen who call you excuse me I've made some progress but not enough to tell me for sure that I'm doing the right thing with my life It took most of the first year just to get the coveted waitressing job at the comedy club,What endeavor consumed most of the first year for the narrator?,A. Becoming a successful actress,B. Getting a job at General Electric,C. Getting a waitressing job,D. Becoming a comedian,C. Getting a waitressing job,yes,5.786,,,,,,,,,,,,,0,6,6,6,,,,,,,,,,,,,,,,,,,,,,,,,,,,,,,,,,,,,,,,,,,,,,,,,,,,,392.4897283329992,400.1820440419997,1,7.681039832999886,7.681042625000373,0,,,0,,,0,,,,,,,,,,,,,,,,,,,,,,,,,,,,,,p_3,001,2024-05-04_11h56.23.373,speech_rate,2023.2.3,None,2024-05-04 11h56.35.950509 -0700,
,Someday_27_condition-5x.wav,Someday__Someday__Maybe__Unabridged___File_016_of_116_0.wav,And maybe we'll go out sometime and maybe we'll fall in love and someday we'll happen to be walking down this very street and he'll say remember that day when we accidentally ran into each other here But none of that can happen if he walks by me on the street today I make my way across 45th Street and hover near a trash can digging in my bag as if I'm looking for something I need to throw out waiting for his light to change Finally I can see him start to walk across the street I look away so he doesn't see me staring at him and when I glance up again I've lost him in the crowd,What is the narrator's hope regarding the person she encounters on the street?,A. To avoid meeting them,B. To have a chance encounter,C. To never see them again,D. To get their phone number,B. To have a chance encounter,no,5.912,,,,,,,,,,,,,0,7,7,7,,,,,,,,,400.1903595829999,,,,,,,,,,,,,,,402.33263220799927,402.3482085416665,402.344511667,408.26555087499946,408.26706354199996,408.27840341699994,408.5156490829995,408.5156490829995,410.7429283329993,413.16702758299925,1.5333333333333332,4.241015083000093,1,[2.4339304589993844],[2.4339333339994482],,,,,,,,,,,,,,,413.16750008300005,418.34939866700006,0,,,0,,,1,5.173420457999782,5.1734235419999095,0,,,,,,,,,,400.18260783299957,400.1903595829999,400.1903595829999,400.1903595829999,402.33238283299943,1,[2.1477777079999214],[2.1477807080000275],,,,,,,,,,,,,p_3,001,2024-05-04_11h56.23.373,speech_rate,2023.2.3,None,2024-05-04 11h56.35.950509 -0700,
,Someday_111_condition-5x.wav,Someday__Someday__Maybe__Unabridged___File_048_of_116_4.wav,Where would he have gotten the picture You see them on the street sometimes I don't know I'm just saying It's occurred to me Because other than him that one very famous person do you recognize anyone else on that wall Well there's that cast photo from Cats with all the people in their cat costumes I don't recognize them individually but as a group they seem authentic But besides the somewhat believable cats Wait yes There's that actress My mother loved her She was on that detective show in the 60s,What are the narrator and her friend discussing on the wall?,A. A picture of a famous person,B. A cast photo from the musical Cats,C. A detective show from the '60s,D. Pictures of people on the street,A. A picture of a famous person,yes,5.902,,,,,,,,,,,,,0,8,8,8,0,0,0,0,0,0,0,0,434.42908870799965,,,,,,,,,,,,,,,420.3502456669994,420.3658172086664,420.36168825000004,426.25638591699953,426.26954249999926,426.2807584579996,426.4870163329997,426.4870163329997,429.2878170419999,429.92311795799924,1.0499999999999998,2.983168540999941,1,[0.6443157909998263],[0.6443184999998266],,,,,,,434.4183078749993,434.42908870799965,434.42908870799965,445.26767404199927,,1,[10.84639079199951],[10.846393791999617],,,,,,,,,,,,,,,,,,,,,,418.3498526249996,418.354721875,418.354721875,418.354721875,420.35002062500007,1,[1.999761375000162],[1.999764540999422],429.9236259579993,429.93258004199924,434.4175513329992,1,[4.493345291999503],[4.4933482919996095],,,,,,,p_3,001,2024-05-04_11h56.23.373,speech_rate,2023.2.3,None,2024-05-04 11h56.35.950509 -0700,
,Someday_111_condition-5x.wav,Someday__Someday__Maybe__Unabridged___File_048_of_116_4.wav,Where would he have gotten the picture You see them on the street sometimes I don't know I'm just saying It's occurred to me Because other than him that one very famous person do you recognize anyone else on that wall Well there's that cast photo from Cats with all the people in their cat costumes I don't recognize them individually but as a group they seem authentic But besides the somewhat believable cats Wait yes There's that actress My mother loved her She was on that detective show in the 60s,What are the narrator and her friend discussing on the wall?,A. A picture of a famous person,B. A cast photo from the musical Cats,C. A detective show from the '60s,D. Pictures of people on the street,A. A picture of a famous person,yes,5.902,,,,,,,,,,,,,0,8,8,8,0,0,0,0,,,,,,,,,,,,,,,,,,,,,,,,,,,,,,,,,,,,,,,,,,,,,,,,,,,,,,,,,,,,,,,,,,,,,,,,,,,,,,,,,,,,,,,,,,p_3,001,2024-05-04_11h56.23.373,speech_rate,2023.2.3,None,2024-05-04 11h56.35.950509 -0700,
,Someday_111_condition-5x.wav,Someday__Someday__Maybe__Unabridged___File_048_of_116_4.wav,Where would he have gotten the picture You see them on the street sometimes I don't know I'm just saying It's occurred to me Because other than him that one very famous person do you recognize anyone else on that wall Well there's that cast photo from Cats with all the people in their cat costumes I don't recognize them individually but as a group they seem authentic But besides the somewhat believable cats Wait yes There's that actress My mother loved her She was on that detective show in the 60s,What are the narrator and her friend discussing on the wall?,A. A picture of a famous person,B. A cast photo from the musical Cats,C. A detective show from the '60s,D. Pictures of people on the street,A. A picture of a famous person,yes,5.902,,,,,,,,,,,,,0,8,8,8,,,,,,,,,,,,,,,,,,,,,,,,,,,,,,,,,,,,,,,,,,,,,,,,,,,,,445.2680555829993,450.7523469579992,0,,,0,,,0,,,1,5.474650334000216,5.4746547089998785,,,,,,,,,,,,,,,,,,,,,,,,,,,,p_3,001,2024-05-04_11h56.23.373,speech_rate,2023.2.3,None,2024-05-04 11h56.35.950509 -0700,
,Someday_37_condition-3x.wav,Someday__Someday__Maybe__Unabridged___File_020_of_116_2.wav,If only I hadn't missed the chair if only I made better undergarment choices I Want to ask someone how bad it was exactly But the backstage area is so small that all the students here now are waiting for their turn and too nervous to talk Anyone who could have been watching from the wings is probably downstairs now in the green room smoking cigarettes and talking about themselves As much as I want feedback I don't feel like going down there I can face one person trying in vain to convince me it wasn't so bad but not a sea of pitying faces,What is preventing the narrator from asking someone about their performance?,A. Fear of a large crowd,B. Lack of interest in feedback,C. The small backstage area,D. Smoking cigarettes in the green room,C. The small backstage area,yes,10.74375,,,,,,,,,,,,,0,9,9,9,0,0,0,0,0,0,0,0,473.6969702079996,,,,,,,,,,,,,,,452.48561916699964,452.5011662916661,452.5046337499998,463.252032333,463.25369008300004,463.26498591699965,463.4918999169995,463.4918999169995,465.22821612499956,471.9469628329998,7.008333333333334,2.509444958000131,1,[6.727740875000563],[6.7277433750005],,,,,,,473.6854374169998,473.6969702079996,473.6969702079996,495.41178008299903,"People are in the back room talking, the looks on their faces and things are described",1,[21.72304004199941],[21.723043709000194],,,,,,,,,,,,,,,,,,,,,,450.7529067919995,450.7611819999993,450.7611819999993,450.7611819999993,452.4853739169994,1,[1.7301547919996665],[1.730157916999815],471.94745070799945,471.96770495799956,473.68478570799925,1,[1.7368687500002125],[1.7368719999994937],,,,,,,p_3,001,2024-05-04_11h56.23.373,speech_rate,2023.2.3,None,2024-05-04 11h56.35.950509 -0700,
,Someday_37_condition-3x.wav,Someday__Someday__Maybe__Unabridged___File_020_of_116_2.wav,If only I hadn't missed the chair if only I made better undergarment choices I Want to ask someone how bad it was exactly But the backstage area is so small that all the students here now are waiting for their turn and too nervous to talk Anyone who could have been watching from the wings is probably downstairs now in the green room smoking cigarettes and talking about themselves As much as I want feedback I don't feel like going down there I can face one person trying in vain to convince me it wasn't so bad but not a sea of pitying faces,What is preventing the narrator from asking someone about their performance?,A. Fear of a large crowd,B. Lack of interest in feedback,C. The small backstage area,D. Smoking cigarettes in the green room,C. The small backstage area,yes,10.74375,,,,,,,,,,,,,0,9,9,9,0,0,0,0,,,,,,,,,,,,,,,,,,,,,,,,,,,,,,,,,,,,,,,,,,,,,,,,,,,,,,,,,,,,,,,,,,,,,,,,,,,,,,,,,,,,,,,,,,p_3,001,2024-05-04_11h56.23.373,speech_rate,2023.2.3,None,2024-05-04 11h56.35.950509 -0700,
,Someday_37_condition-3x.wav,Someday__Someday__Maybe__Unabridged___File_020_of_116_2.wav,If only I hadn't missed the chair if only I made better undergarment choices I Want to ask someone how bad it was exactly But the backstage area is so small that all the students here now are waiting for their turn and too nervous to talk Anyone who could have been watching from the wings is probably downstairs now in the green room smoking cigarettes and talking about themselves As much as I want feedback I don't feel like going down there I can face one person trying in vain to convince me it wasn't so bad but not a sea of pitying faces,What is preventing the narrator from asking someone about their performance?,A. Fear of a large crowd,B. Lack of interest in feedback,C. The small backstage area,D. Smoking cigarettes in the green room,C. The small backstage area,yes,10.74375,,,,,,,,,,,,,0,9,9,9,,,,,,,,,,,,,,,,,,,,,,,,,,,,,,,,,,,,,,,,,,,,,,,,,,,,,495.41224670799966,506.9055677920005,0,,,1,11.481727583000975,11.481731166000827,0,,,0,,,,,,,,,,,,,,,,,,,,,,,,,,,,,,p_3,001,2024-05-04_11h56.23.373,speech_rate,2023.2.3,None,2024-05-04 11h56.35.950509 -0700,
,Someday_88_condition-4x.wav,Someday__Someday__Maybe__Unabridged___File_039_of_116_1.wav,It always seems like something that I should like more than I do though some flavors taste like dirty bath water Or maybe I don't like it on principle because I know it's supposed to be healthy If it was filled with calories and fat would I like it more and why oh why am I thinking about this right now This is hardly the time to make a ruling on such a difficult subject What no scotch I say and I can immediately feel my face flush red I put my hand on my hip in what I hope is a jaunty manner in an attempt to cover for the fact that I'm trying too hard,Why does the narrator say she puts her hand on her hip,A. To hide that she is trying too hard,B. To look attractive,C. To rest her hand,D. To be serious,A. To hide that she is trying too hard,yes,7.205,,,,,,,,,,,,,0,10,10,10,0,0,0,0,0,0,0,0,524.6510117500002,,,,,,,,,,,,,,,511.34462641699974,511.3605442916671,511.35695487500016,518.5551082919992,518.5730905,518.5843438749998,518.8348015419997,518.8348015419997,521.4438327499993,523.6608440420005,3.033333333333333,4.116617916000905,1,[2.2262188749991765],[2.226221540999177],,,,,,,524.6402049579992,524.6510117500002,524.6510117500002,535.057565707999,"There is nothing she can do, she should stop trying too hard",1,[10.414387500000885],[10.414390792000631],,,,,,,,,,,,,,,,,,,,,,506.9061521250005,506.91481999999996,506.91481999999996,506.91481999999996,511.3444198750003,1,[4.435817750001661],[4.435820708000392],523.6613795829999,523.6711012920005,524.6394316669994,1,[0.9775996249991294],[0.9776028749984107],,,,,,,p_3,001,2024-05-04_11h56.23.373,speech_rate,2023.2.3,None,2024-05-04 11h56.35.950509 -0700,
,Someday_88_condition-4x.wav,Someday__Someday__Maybe__Unabridged___File_039_of_116_1.wav,It always seems like something that I should like more than I do though some flavors taste like dirty bath water Or maybe I don't like it on principle because I know it's supposed to be healthy If it was filled with calories and fat would I like it more and why oh why am I thinking about this right now This is hardly the time to make a ruling on such a difficult subject What no scotch I say and I can immediately feel my face flush red I put my hand on my hip in what I hope is a jaunty manner in an attempt to cover for the fact that I'm trying too hard,Why does the narrator say she puts her hand on her hip,A. To hide that she is trying too hard,B. To look attractive,C. To rest her hand,D. To be serious,A. To hide that she is trying too hard,yes,7.205,,,,,,,,,,,,,0,10,10,10,0,0,0,0,,,,,,,,,,,,,,,,,,,,,,,,,,,,,,,,,,,,,,,,,,,,,,,,,,,,,,,,,,,,,,,,,,,,,,,,,,,,,,,,,,,,,,,,,,p_3,001,2024-05-04_11h56.23.373,speech_rate,2023.2.3,None,2024-05-04 11h56.35.950509 -0700,
,Someday_88_condition-4x.wav,Someday__Someday__Maybe__Unabridged___File_039_of_116_1.wav,It always seems like something that I should like more than I do though some flavors taste like dirty bath water Or maybe I don't like it on principle because I know it's supposed to be healthy If it was filled with calories and fat would I like it more and why oh why am I thinking about this right now This is hardly the time to make a ruling on such a difficult subject What no scotch I say and I can immediately feel my face flush red I put my hand on my hip in what I hope is a jaunty manner in an attempt to cover for the fact that I'm trying too hard,Why does the narrator say she puts her hand on her hip,A. To hide that she is trying too hard,B. To look attractive,C. To rest her hand,D. To be serious,A. To hide that she is trying too hard,yes,7.205,,,,,,,,,,,,,0,10,10,10,,,,,,,,,,,,,,,,,,,,,,,,,,,,,,,,,,,,,,,,,,,,,,,,,,,,,535.0580229579991,540.5334234580005,1,5.466107915999601,5.46611166600087,0,,,0,,,0,,,,,,,,,,,,,,,,,,,,,,,,,,,,,,p_3,001,2024-05-04_11h56.23.373,speech_rate,2023.2.3,None,2024-05-04 11h56.35.950509 -0700,
,Someday_108_condition-3x.wav,Someday__Someday__Maybe__Unabridged___File_048_of_116_1.wav,Clothes that have to be dry cleaned are already the most expensive clothes Then it's like they're charging you another 3 every time you wear them Regular clothes charge money to clean them if we're looking at it that way Regular laundry costs money too but not as much And you can do regular laundry yourself Dry cleaning is like the secret society you're not allowed into No matter what you're at their mercy You can have a PhD in anything but you still can't dry clean your own clothes They'll never tell you how No one's ever even seen what the machine looks like,What is the narrator's opinion about dry cleaning?,A. It's less expensive than regular laundry,B. It's a secret society with hidden machines,C. It's environmentally friendly,D. It's a simple and accessible process,B. It's a secret society with hidden machines,yes,10.75125,,,,,,,,,,,,,0,11,11,11,0,0,0,0,0,0,0,0,559.4189912499987,,,,,,,,,,,,,,,543.4441890420003,543.4736239163326,543.4623014579993,554.2240132919997,554.2274268330002,554.2491564169995,554.4764995000005,554.4764995000005,556.6623029580005,558.308340042,7.949999999999999,2.3865965000004508,1,[1.6551032080005825],[1.6551060830006463],,,,,,,559.4082601669998,559.4189912499987,559.4189912499987,587.9769169169995,"Dry cleaning is expensive compared to regular laundry. She doesn't think one could dry clean their clothes, but they can afford regular laundry. $3 a wash is ridiculous",1,[28.565702792000593],[28.56570649999958],,,,,,,,,,,,,,,,,,,,,,540.5340069169997,540.541647,540.541647,540.541647,543.4439393329994,1,[2.907483790999322],[2.907489916000486],558.3088507079992,558.3135079169988,559.4076938329999,1,[1.098320999999487],[1.0983242499987682],,,,,,,p_3,001,2024-05-04_11h56.23.373,speech_rate,2023.2.3,None,2024-05-04 11h56.35.950509 -0700,
,Someday_108_condition-3x.wav,Someday__Someday__Maybe__Unabridged___File_048_of_116_1.wav,Clothes that have to be dry cleaned are already the most expensive clothes Then it's like they're charging you another 3 every time you wear them Regular clothes charge money to clean them if we're looking at it that way Regular laundry costs money too but not as much And you can do regular laundry yourself Dry cleaning is like the secret society you're not allowed into No matter what you're at their mercy You can have a PhD in anything but you still can't dry clean your own clothes They'll never tell you how No one's ever even seen what the machine looks like,What is the narrator's opinion about dry cleaning?,A. It's less expensive than regular laundry,B. It's a secret society with hidden machines,C. It's environmentally friendly,D. It's a simple and accessible process,B. It's a secret society with hidden machines,yes,10.75125,,,,,,,,,,,,,0,11,11,11,0,0,0,0,,,,,,,,,,,,,,,,,,,,,,,,,,,,,,,,,,,,,,,,,,,,,,,,,,,,,,,,,,,,,,,,,,,,,,,,,,,,,,,,,,,,,,,,,,p_3,001,2024-05-04_11h56.23.373,speech_rate,2023.2.3,None,2024-05-04 11h56.35.950509 -0700,
,Someday_108_condition-3x.wav,Someday__Someday__Maybe__Unabridged___File_048_of_116_1.wav,Clothes that have to be dry cleaned are already the most expensive clothes Then it's like they're charging you another 3 every time you wear them Regular clothes charge money to clean them if we're looking at it that way Regular laundry costs money too but not as much And you can do regular laundry yourself Dry cleaning is like the secret society you're not allowed into No matter what you're at their mercy You can have a PhD in anything but you still can't dry clean your own clothes They'll never tell you how No one's ever even seen what the machine looks like,What is the narrator's opinion about dry cleaning?,A. It's less expensive than regular laundry,B. It's a secret society with hidden machines,C. It's environmentally friendly,D. It's a simple and accessible process,B. It's a secret society with hidden machines,yes,10.75125,,,,,,,,,,,,,0,11,11,11,,,,,,,,,,,,,,,,,,,,,,,,,,,,,,,,,,,,,,,,,,,,,,,,,,,,,587.9773834579992,613.800669667,0,,,0,,,0,,,1,25.812076582998998,25.81207962499866,,,,,,,,,,,,,,,,,,,,,,,,,,,,p_3,001,2024-05-04_11h56.23.373,speech_rate,2023.2.3,None,2024-05-04 11h56.35.950509 -0700,
,Someday_21_condition-5x.wav,Someday__Someday__Maybe__Unabridged___File_013_of_116_0.wav,But I guess he was like she already has an agent at Absolute and she's got two movies in the can so like you know fine just one more beanpole to deal with This is the kind of confidence you're supposed to have as an actress I think I mean I would personally never announce that I had an agent at Absolute Artists the best agency in town or talk about movies I'd done or refer to myself as a beanpole especially loudly and in a room full of people But then again in my case none of those things are TRUE,What is the narrator's stance on sharing personal accomplishments in public?,A. The narrator believes in confidently announcing her achievements,B. The narrator prefers to keep her agent and acting achievements private,C. The narrator doesn't have a strong opinion on this,D. The narrator feels it's necessary to talk loudly about her successes to gain recognition,D. The narrator feels it's necessary to talk loudly about her successes to gain recognition,no,5.89,,,,,,,,,,,,,0,12,12,12,,,,,,,,,613.8091514579992,,,,,,,,,,,,,,,615.0615042499994,615.0770864586668,615.073355167,620.9608195419987,620.9675458330003,620.9778913329992,621.2384271249994,621.2384271249994,623.3099120829993,624.0002897499999,2.0666666666666664,2.303169834000073,1,[0.7038616249992629],[0.7038642909992632],,,,,,,,,,,,,,,624.0007194999998,631.8459925829993,0,,,1,7.833546290999948,7.833549832999779,0,,,0,,,,,,,,,,613.8011259579998,613.8091514579992,613.8091514579992,613.8091514579992,615.0612977919991,1,[1.2587660830013192],[1.2587690410000505],,,,,,,,,,,,,p_3,001,2024-05-04_11h56.23.373,speech_rate,2023.2.3,None,2024-05-04 11h56.35.950509 -0700,
,Someday_14_condition-4x.wav,Someday__Someday__Maybe__Unabridged___File_009_of_116_2.wav,Jane grew up in Greenwich Village in Manhattan and has style Where I struggle to match a black shirt with black pants she throws on jeans and a t shirt and nine chunky cuffs on one wrist with an air that says so I dare you to not find this cool She shops at Century 21 and Boltons and second hand stores and somehow makes it all look expensive Wait Jane Levine you are not just getting home are you I ask peeking into one of the brown bags Can they do that to you,Where did Jane grow up in?,A. Williamsburg,B. Greenwich Village,C. SoHo,D. Queens,B. Greenwich Village,yes,7.04,,,,,,,,,,,,,0,13,13,13,0,0,0,0,0,0,0,0,643.6911954169991,,,,,,,,,,,,,,,633.661232041999,633.6770347916665,633.6718362079991,640.7121323329993,640.7235619579988,640.7348377919989,640.9348807080005,640.9348807080005,642.1443239170003,642.8022585420003,4.058333333333334,1.3817209579992777,1,[0.6708259169990924],[0.6708284999986063],,,,,,,643.679860582999,643.6911954169991,643.6911954169991,670.4719087499998,"White shirt and black jeans, they shop at forever 21? and other secondhand stores. Talking about someone's fashion",1,[26.78891662499882],[26.788919999999052],,,,,,,,,,,,,,,,,,,,,,631.846507541999,631.8523716250002,631.8523716250002,631.8523716250002,633.6610252499995,1,[1.8139785420007684],[1.8139821250006207],642.8027710419992,642.8105908329999,643.6792011670004,1,[0.8759723749990371],[0.8759752909991221],,,,,,,p_3,001,2024-05-04_11h56.23.373,speech_rate,2023.2.3,None,2024-05-04 11h56.35.950509 -0700,
,Someday_14_condition-4x.wav,Someday__Someday__Maybe__Unabridged___File_009_of_116_2.wav,Jane grew up in Greenwich Village in Manhattan and has style Where I struggle to match a black shirt with black pants she throws on jeans and a t shirt and nine chunky cuffs on one wrist with an air that says so I dare you to not find this cool She shops at Century 21 and Boltons and second hand stores and somehow makes it all look expensive Wait Jane Levine you are not just getting home are you I ask peeking into one of the brown bags Can they do that to you,Where did Jane grow up in?,A. Williamsburg,B. Greenwich Village,C. SoHo,D. Queens,B. Greenwich Village,yes,7.04,,,,,,,,,,,,,0,13,13,13,0,0,0,0,,,,,,,,,,,,,,,,,,,,,,,,,,,,,,,,,,,,,,,,,,,,,,,,,,,,,,,,,,,,,,,,,,,,,,,,,,,,,,,,,,,,,,,,,,p_3,001,2024-05-04_11h56.23.373,speech_rate,2023.2.3,None,2024-05-04 11h56.35.950509 -0700,
,Someday_14_condition-4x.wav,Someday__Someday__Maybe__Unabridged___File_009_of_116_2.wav,Jane grew up in Greenwich Village in Manhattan and has style Where I struggle to match a black shirt with black pants she throws on jeans and a t shirt and nine chunky cuffs on one wrist with an air that says so I dare you to not find this cool She shops at Century 21 and Boltons and second hand stores and somehow makes it all look expensive Wait Jane Levine you are not just getting home are you I ask peeking into one of the brown bags Can they do that to you,Where did Jane grow up in?,A. Williamsburg,B. Greenwich Village,C. SoHo,D. Queens,B. Greenwich Village,yes,7.04,,,,,,,,,,,,,0,13,13,13,,,,,,,,,,,,,,,,,,,,,,,,,,,,,,,,,,,,,,,,,,,,,,,,,,,,,670.4723576670003,674.1049840420001,0,,,0,,,1,3.623392083998624,3.623396083999978,0,,,,,,,,,,,,,,,,,,,,,,,,,,,,,,p_3,001,2024-05-04_11h56.23.373,speech_rate,2023.2.3,None,2024-05-04 11h56.35.950509 -0700,
,Someday_15_condition-2x.wav,Someday__Someday__Maybe__Unabridged___File_009_of_116_3.wav,Whenever Jane talks about Russell Blakely all I can picture is that line everybody was quoting from his last movie Steel Entrapment where he calls out to Cordelia Biscayne honey I'm home while hanging by one hand from the landing gear of a helicopter bare chested Today's special is from the set of Kill Time an assortment of bagels that were only out on the craft service table for about three hours but are not sadly accompanied by cream cheese and that Chinese rice thing that Dan likes which I don't think was too aggressively sneezed upon,What does Russell Blakely call out to Cordelia Biscayne in the movie Steel Entrapment?,A. "Sweetie I'm out",B. "Baby I'm back",C. "Darling I've arrived",D. "Honey I'm home",D. "Honey I'm home",no,14.675,,,,,,,,,,,,,0,14,14,14,,,,,,,,,674.1121601670002,,,,,,,,,,,,,,,675.898282791999,675.9138420836664,675.9185506670001,690.5879293329999,690.5927826669995,690.6040137079999,690.8567260420004,690.8567260420004,692.6696710420001,693.2931494999993,9.925,2.0414198329999635,1,[0.6326689170000463],[0.6326724170012312],,,,,,,,,,,,,,,693.2936153329993,697.0726852499993,0,,,0,,,0,,,1,3.769563249999919,3.7695663340000465,,,,,,,,674.1054549170003,674.1121601670002,674.1121601670002,674.1121601670002,675.8980557499999,1,[1.7911677079991932],[1.791170874999807],,,,,,,,,,,,,p_3,001,2024-05-04_11h56.23.373,speech_rate,2023.2.3,None,2024-05-04 11h56.35.950509 -0700,
,Someday_92_condition-3x.wav,Someday__Someday__Maybe__Unabridged___File_040_of_116_1.wav,The chair I'm using is a cushiony office chair with wheels and I become aware about halfway through the monologue that I've been sort of sliding back and forth in it the chair with wheels equivalent of pacing I steady my feet on the floor and command myself to stop moving which causes me to forget my next line Shit I've totally lost my place I pause trying to stay in character I look out the window as though I'm she's having an important thought If I relax it will come to me If I panic it will not That's what I've learned in class,Why does the narrator look out the window during the monologue?,A. To take the agent's attention,B. To stay in character and find the next line,C. To see something interesting,D. To distract herself,B. To stay in character and find the next line,no,11.38125,,,,,,,,,,,,,0,15,15,15,,,,,,,,,697.0798759169993,,,,,,,,,,,,,,,697.7557984579998,697.7714085836672,697.7727475829997,709.1477429579991,709.1539222920001,709.1649870829988,709.368835833,709.368835833,712.2835365829997,713.1898018329994,6.008333333333333,3.0940437500012195,1,[0.9156945839986292],[0.915697458998693],,,,,,,,,,,,,,,713.19027775,720.2681471670003,0,,,0,,,0,,,1,7.0686644580000575,7.068668875001094,,,,,,,,697.073137542,697.0798759169993,697.0798759169993,697.0798759169993,697.7555912919997,1,[0.6809996250012773],[0.6810026670009393],,,,,,,,,,,,,p_3,001,2024-05-04_11h56.23.373,speech_rate,2023.2.3,None,2024-05-04 11h56.35.950509 -0700,
,Someday_77_condition-3x.wav,Someday__Someday__Maybe__Unabridged___File_035_of_116_5.wav,I'm embarrassed to tell a stranger even a kind one all that I've been hoping for What a dumb question I'm asking It's torture telling someone what you want when you don't have it yet isn't it Barney says How are you supposed to know yet Am I right That makes me laugh Yes As my father the great Broadway director Irving Sparks always used to say we all have to start somewhere So start somewhere anywhere Give me an idea of what it is you'd like to do Tell me everything What is your dream,What advice that Barney Sparks give to the narrator?,A. To be picky,B. To start from somewhere,C. To find something else to do,D. To patiently wait for the right part,B. To start from somewhere,yes,11.0025,,,,,,,,,,,,,0,16,16,16,0,0,0,0,0,0,0,0,737.1305292500001,,,,,,,,,,,,,,,721.4842917919996,721.499783833666,721.5012757919994,732.5008092079988,732.5042413749998,732.5256208749997,732.7376603749999,732.7376603749999,735.5888053750004,736.2342421249996,6.941666666666666,3.0392799159999413,1,[0.6545855419990403],[0.6545887499996752],,,,,,,737.1188463750004,737.1305292500001,737.1305292500001,766.2443205420004,"I'm afraid to tell strangers about all I strive for. Stranger tells her she has to start somewhere, and calls for her to tell him all about her dreams and aspirations",1,[29.122018499998376],[29.12202258399884],,,,,,,,,,,,,,,,,,,,,,720.2687631249992,720.2762724999993,720.2762724999993,720.2762724999993,721.4840433329991,1,[1.2135130839997146],[1.2135160840007302],736.2347349169995,736.2397809579998,737.1180369579997,1,[0.8826774579993071],[0.882680500000788],,,,,,,p_3,001,2024-05-04_11h56.23.373,speech_rate,2023.2.3,None,2024-05-04 11h56.35.950509 -0700,
,Someday_77_condition-3x.wav,Someday__Someday__Maybe__Unabridged___File_035_of_116_5.wav,I'm embarrassed to tell a stranger even a kind one all that I've been hoping for What a dumb question I'm asking It's torture telling someone what you want when you don't have it yet isn't it Barney says How are you supposed to know yet Am I right That makes me laugh Yes As my father the great Broadway director Irving Sparks always used to say we all have to start somewhere So start somewhere anywhere Give me an idea of what it is you'd like to do Tell me everything What is your dream,What advice that Barney Sparks give to the narrator?,A. To be picky,B. To start from somewhere,C. To find something else to do,D. To patiently wait for the right part,B. To start from somewhere,yes,11.0025,,,,,,,,,,,,,0,16,16,16,0,0,0,0,,,,,,,,,,,,,,,,,,,,,,,,,,,,,,,,,,,,,,,,,,,,,,,,,,,,,,,,,,,,,,,,,,,,,,,,,,,,,,,,,,,,,,,,,,p_3,001,2024-05-04_11h56.23.373,speech_rate,2023.2.3,None,2024-05-04 11h56.35.950509 -0700,
,Someday_77_condition-3x.wav,Someday__Someday__Maybe__Unabridged___File_035_of_116_5.wav,I'm embarrassed to tell a stranger even a kind one all that I've been hoping for What a dumb question I'm asking It's torture telling someone what you want when you don't have it yet isn't it Barney says How are you supposed to know yet Am I right That makes me laugh Yes As my father the great Broadway director Irving Sparks always used to say we all have to start somewhere So start somewhere anywhere Give me an idea of what it is you'd like to do Tell me everything What is your dream,What advice that Barney Sparks give to the narrator?,A. To be picky,B. To start from somewhere,C. To find something else to do,D. To patiently wait for the right part,B. To start from somewhere,yes,11.0025,,,,,,,,,,,,,0,16,16,16,,,,,,,,,,,,,,,,,,,,,,,,,,,,,,,,,,,,,,,,,,,,,,,,,,,,,766.2447989169996,771.1685386669997,0,,,1,4.914361917000861,4.914364917000057,0,,,0,,,,,,,,,,,,,,,,,,,,,,,,,,,,,,p_3,001,2024-05-04_11h56.23.373,speech_rate,2023.2.3,None,2024-05-04 11h56.35.950509 -0700,
,Someday_81_condition-4x.wav,Someday__Someday__Maybe__Unabridged___File_037_of_116_2.wav,He's looking for meaning in his life and his art Oh is that all Yep Just the plain old everyday quest for the meaning of life A beautiful actress wearing glasses says something to the director played by Marcello Mastriani Her mouth keeps moving even after her voice has stopped The sink seems off It was the style of Italian filmmakers of the day to dub all the dialogue in later Dan explains eyes still pinned to the screen,What was the style of Italian filmmakers?,A. Dubbing all the dialogue later,B. Using a lot of jump cuts,C. Prioritizing cheap productions,D. Casting tall leads,A. Dubbing all the dialogue later,no,7.5575,,,,,,,,,,,,,0,17,17,17,,,,,,,,,771.1747702499997,,,,,,,,,,,,,,,772.8781260420001,772.8936317916671,772.891297958,780.4433499999996,780.4535888749997,780.4636731249993,780.7312067499988,780.7312067499988,785.3695478749996,786.0100995829998,2.4916666666666667,4.8779200420012785,1,[0.6540209169997979],[0.6540235419997771],,,,,,,,,,,,,,,786.0105517920001,794.364347875,1,8.344237708999572,8.34424508399934,0,,,0,,,0,,,,,,,,,,771.1690230000004,771.1747702499997,771.1747702499997,771.1747702499997,772.8779002499996,1,[1.7073864590001904],[1.707389791999958],,,,,,,,,,,,,p_3,001,2024-05-04_11h56.23.373,speech_rate,2023.2.3,None,2024-05-04 11h56.35.950509 -0700,
,Someday_35_condition.wav,Someday__Someday__Maybe__Unabridged___File_020_of_116_0.wav,Who put that there Oh No is that what I said Yes that was it I have no idea why it doesn't even make sense Who put that there How stupid I just couldn't think of anything else They laughed though I think they laughed Maybe they gasped in horror No they definitely laughed when I said that They gasped when I fell that's what it was Was it a gasp of disgust were they merely expressing concern for my safety I can't remember,What does the narrator wonder about the audience's reaction?,A. Whether they laughed or gasped,B. Whether they cried or screamed,C. Whether they left the play,D. Whether they were distracted,A. Whether they laughed or gasped,yes,29.39996875,,,,,,,,,,,,,0,18,18,18,0,0,0,0,0,0,0,0,829.1893878329993,,,,,,,,,,,,,,,796.2220999580004,796.2708048329994,796.2610076669989,825.655896332999,825.6746754579999,825.6859179579988,825.8892502500003,825.8892502500003,827.7886290829993,828.3796315,10,2.0747250000003987,1,[0.6037329999999201],[0.6037356669985456],,,,,,,829.1775386249992,829.1893878329993,829.1893878329993,857.2498164999997,"She said "Who put that there??" after she tripped on something. She is not sure if they laughed or gasped, but she fell and they reacted. She is not sure whether they were concerned, laughing or disgusted",1,[28.06889187500019],[28.068895959000656],,,,,,,,,,,,,,,,,,,,,,794.3649115829994,794.3868379169999,794.3868379169999,794.3868379169999,796.2218404579999,1,[1.8563315419996798],[1.8563384169992787],828.3801712919994,828.3882199580003,829.1767642079994,1,[0.79529249999905],[0.7953059169994958],,,,,,,p_3,001,2024-05-04_11h56.23.373,speech_rate,2023.2.3,None,2024-05-04 11h56.35.950509 -0700,
,Someday_35_condition.wav,Someday__Someday__Maybe__Unabridged___File_020_of_116_0.wav,Who put that there Oh No is that what I said Yes that was it I have no idea why it doesn't even make sense Who put that there How stupid I just couldn't think of anything else They laughed though I think they laughed Maybe they gasped in horror No they definitely laughed when I said that They gasped when I fell that's what it was Was it a gasp of disgust were they merely expressing concern for my safety I can't remember,What does the narrator wonder about the audience's reaction?,A. Whether they laughed or gasped,B. Whether they cried or screamed,C. Whether they left the play,D. Whether they were distracted,A. Whether they laughed or gasped,yes,29.39996875,,,,,,,,,,,,,0,18,18,18,0,0,0,0,,,,,,,,,,,,,,,,,,,,,,,,,,,,,,,,,,,,,,,,,,,,,,,,,,,,,,,,,,,,,,,,,,,,,,,,,,,,,,,,,,,,,,,,,,p_3,001,2024-05-04_11h56.23.373,speech_rate,2023.2.3,None,2024-05-04 11h56.35.950509 -0700,
,Someday_35_condition.wav,Someday__Someday__Maybe__Unabridged___File_020_of_116_0.wav,Who put that there Oh No is that what I said Yes that was it I have no idea why it doesn't even make sense Who put that there How stupid I just couldn't think of anything else They laughed though I think they laughed Maybe they gasped in horror No they definitely laughed when I said that They gasped when I fell that's what it was Was it a gasp of disgust were they merely expressing concern for my safety I can't remember,What does the narrator wonder about the audience's reaction?,A. Whether they laughed or gasped,B. Whether they cried or screamed,C. Whether they left the play,D. Whether they were distracted,A. Whether they laughed or gasped,yes,29.39996875,,,,,,,,,,,,,0,18,18,18,,,,,,,,,,,,,,,,,,,,,,,,,,,,,,,,,,,,,,,,,,,,,,,,,,,,,857.2503015000002,862.8853719580002,1,5.624890749999395,5.624893792000876,0,,,0,,,0,,,,,,,,,,,,,,,,,,,,,,,,,,,,,,p_3,001,2024-05-04_11h56.23.373,speech_rate,2023.2.3,None,2024-05-04 11h56.35.950509 -0700,
,Someday_39_condition-3x.wav,Someday__Someday__Maybe__Unabridged___File_021_of_116_1.wav,People who are admired for holding it together are not people who are about to get agents They're people who are recovering from cancer or undergoing a murder trial And I dropped a section I add hoping he'll say he didn't notice Yeah I know but I only know because I'm obsessed with that guy's work No one will dock you for that It's not exactly a glowing review but he doesn't seem totally horrified Still he's avoiding the thing I most want to know But when I fell I mean how bad was it,What does the narrator hope the person they are talking to will say?,A. That he didn't notice the mistake,B. That he noticed the dropped section,C. That he wants to be an agent,D. That he's obsessed with the narrator's work,A. That he didn't notice the mistake,yes,10.96125,,,,,,,,,,,,,0,19,19,19,0,0,0,0,0,0,0,0,881.1047140829996,,,,,,,,,,,,,,,865.025906375,865.0413632086659,865.0412592920002,876.0089976250001,876.0116163330003,876.0228600829996,876.2783968330004,876.2783968330004,879.6411510830003,880.30935125,6.491666666666666,3.5900970000002417,1,[0.6811874579998403],[0.6811901250002848],,,,,,,881.0935089169998,881.1047140829996,881.1047140829996,908.0114690419996,"People are admired for holding it together, such as those who have cancer. Some guy is giving her a review that is "not a glowing review" but is not a negative one. she feels mildly reaffirmed by this",1,[26.914816415999667],[26.914819915999033],,,,,,,,,,,,,,,,,,,,,,862.8859294579997,862.8932404579991,862.8932404579991,862.8932404579991,865.0256603329999,1,[2.137840250001318],[2.1378433340014453],880.3098231249987,880.3142194579996,881.0928347499994,1,[0.7824432500001421],[0.7824463750002906],,,,,,,p_3,001,2024-05-04_11h56.23.373,speech_rate,2023.2.3,None,2024-05-04 11h56.35.950509 -0700,
,Someday_39_condition-3x.wav,Someday__Someday__Maybe__Unabridged___File_021_of_116_1.wav,People who are admired for holding it together are not people who are about to get agents They're people who are recovering from cancer or undergoing a murder trial And I dropped a section I add hoping he'll say he didn't notice Yeah I know but I only know because I'm obsessed with that guy's work No one will dock you for that It's not exactly a glowing review but he doesn't seem totally horrified Still he's avoiding the thing I most want to know But when I fell I mean how bad was it,What does the narrator hope the person they are talking to will say?,A. That he didn't notice the mistake,B. That he noticed the dropped section,C. That he wants to be an agent,D. That he's obsessed with the narrator's work,A. That he didn't notice the mistake,yes,10.96125,,,,,,,,,,,,,0,19,19,19,0,0,0,0,,,,,,,,,,,,,,,,,,,,,,,,,,,,,,,,,,,,,,,,,,,,,,,,,,,,,,,,,,,,,,,,,,,,,,,,,,,,,,,,,,,,,,,,,,p_3,001,2024-05-04_11h56.23.373,speech_rate,2023.2.3,None,2024-05-04 11h56.35.950509 -0700,
,Someday_39_condition-3x.wav,Someday__Someday__Maybe__Unabridged___File_021_of_116_1.wav,People who are admired for holding it together are not people who are about to get agents They're people who are recovering from cancer or undergoing a murder trial And I dropped a section I add hoping he'll say he didn't notice Yeah I know but I only know because I'm obsessed with that guy's work No one will dock you for that It's not exactly a glowing review but he doesn't seem totally horrified Still he's avoiding the thing I most want to know But when I fell I mean how bad was it,What does the narrator hope the person they are talking to will say?,A. That he didn't notice the mistake,B. That he noticed the dropped section,C. That he wants to be an agent,D. That he's obsessed with the narrator's work,A. That he didn't notice the mistake,yes,10.96125,,,,,,,,,,,,,0,19,19,19,,,,,,,,,,,,,,,,,,,,,,,,,,,,,,,,,,,,,,,,,,,,,,,,,,,,,908.0120006670004,921.8798256669997,1,13.856899833999705,13.856903124999008,0,,,0,,,0,,,,,,,,,,,,,,,,,,,,,,,,,,,,,,p_3,001,2024-05-04_11h56.23.373,speech_rate,2023.2.3,None,2024-05-04 11h56.35.950509 -0700,
,Someday_93_condition-2x.wav,Someday__Someday__Maybe__Unabridged___File_041_of_116_0.wav,It doesn't even matter whether it's a real person or an actor playing a character and if the person or character is interesting in some way I put myself in his or her shoes imagining what it would feel like what I would say or do if I were that person I don't remember deciding to do this as a career I want to tell him There wasn't any one day where it came to me My mother died and I started pretending it didn't happen to me started imagining what it would be like to have someone else's life story and pretending became a relief,What coping mechanism did the narrator develop after their mother's death?,A. The narrator chose to openly discuss her career decisions,B. The narrator decided to become an actor one specific day,C. The narrator began to use imagination and pretending as a form of escape,D. The narrator focused on the realism of the characters portrayed by actors,C. The narrator began to use imagination and pretending as a form of escape,yes,14.345,,,,,,,,,,,,,0,20,20,20,0,0,0,0,0,0,0,0,941.014347458,,,,,,,,,,,,,,,923.1688232920005,923.1847353746655,923.1879189579995,937.5293976249995,937.5334832079989,937.5447007499988,937.800059666999,937.800059666999,939.5781630000001,940.1520020419994,10,2.005453750000015,1,[0.5869176670003071],[0.5869202089997998],,,,,,,941.0007345829999,941.014347458,941.014347458,969.5821671670001,"She is talking about her experience to become an actor. she enjoyed escaping her life and imaginging herself in someone else's shoes, so much so that it became her passion. she is in an interview ",1,[28.577951041999768],[28.577954375001354],,,,,,,,,,,,,,,,,,,,,,921.8804135829996,921.8883095419988,921.8883095419988,921.8883095419988,923.1686409169997,1,[1.2864219580005738],[1.2864250000002357],940.1524775420003,940.1615542079999,940.999935124999,1,[0.8468359999988024],[0.8468468339997344],,,,,,,p_3,001,2024-05-04_11h56.23.373,speech_rate,2023.2.3,None,2024-05-04 11h56.35.950509 -0700,
,Someday_93_condition-2x.wav,Someday__Someday__Maybe__Unabridged___File_041_of_116_0.wav,It doesn't even matter whether it's a real person or an actor playing a character and if the person or character is interesting in some way I put myself in his or her shoes imagining what it would feel like what I would say or do if I were that person I don't remember deciding to do this as a career I want to tell him There wasn't any one day where it came to me My mother died and I started pretending it didn't happen to me started imagining what it would be like to have someone else's life story and pretending became a relief,What coping mechanism did the narrator develop after their mother's death?,A. The narrator chose to openly discuss her career decisions,B. The narrator decided to become an actor one specific day,C. The narrator began to use imagination and pretending as a form of escape,D. The narrator focused on the realism of the characters portrayed by actors,C. The narrator began to use imagination and pretending as a form of escape,yes,14.345,,,,,,,,,,,,,0,20,20,20,0,0,0,0,,,,,,,,,,,,,,,,,,,,,,,,,,,,,,,,,,,,,,,,,,,,,,,,,,,,,,,,,,,,,,,,,,,,,,,,,,,,,,,,,,,,,,,,,,p_3,001,2024-05-04_11h56.23.373,speech_rate,2023.2.3,None,2024-05-04 11h56.35.950509 -0700,
,Someday_93_condition-2x.wav,Someday__Someday__Maybe__Unabridged___File_041_of_116_0.wav,It doesn't even matter whether it's a real person or an actor playing a character and if the person or character is interesting in some way I put myself in his or her shoes imagining what it would feel like what I would say or do if I were that person I don't remember deciding to do this as a career I want to tell him There wasn't any one day where it came to me My mother died and I started pretending it didn't happen to me started imagining what it would be like to have someone else's life story and pretending became a relief,What coping mechanism did the narrator develop after their mother's death?,A. The narrator chose to openly discuss her career decisions,B. The narrator decided to become an actor one specific day,C. The narrator began to use imagination and pretending as a form of escape,D. The narrator focused on the realism of the characters portrayed by actors,C. The narrator began to use imagination and pretending as a form of escape,yes,14.345,,,,,,,,,,,,,0,20,20,20,,,,,,,,,,,,,,,,,,,,,,,,,,,,,,,,,,,,,,,,,,,,,,,,,,,,,969.582626333,977.9661402919992,0,,,0,,,1,8.37037274999966,8.37037679199966,0,,,,,,,,,,,,,,,,,,,,,,,,,,,,,,p_3,001,2024-05-04_11h56.23.373,speech_rate,2023.2.3,None,2024-05-04 11h56.35.950509 -0700,
,Someday_120_condition.wav,Someday__Someday__Maybe__Unabridged___File_053_of_116_2.wav,Everything you need is in each packet so it takes the guesswork out of dieting You sound like you've joined a cult What happens when you have to go back to the real world the world where you have to think for yourself Hopefully I'll be so weak and frail that food will have lost its appeal entirely Great plan And who's on Lisa today I'm pretty sure today's show is Women Who Wish Their Best Friends Would Stop Judging Them Har har I'm going to work now Do you want me to take the TV cord with me,"What topic is discussed on Lisa's show, in the narrator's joke?",A. Weight loss programs,B. The challenges of dieting,C. Women's relationships with their best friends,D. The appeal of joining a cult,C. Women's relationships with their best friends,yes,27.72,,,,,,,,,,,,,0,21,21,21,0,0,0,0,0,0,0,0,1014.3348270829993,,,,,,,,,,,,,,,980.0324929170001,980.0647065003327,980.0621238330004,1007.7729107499999,1007.787338832999,1007.8095359170002,1008.0739893749997,1008.0739893749997,1009.9430869579992,1013.5280792499998,9.966666666666667,2.106506750000335,1,[3.5941317080014414],[3.594134250000934],,,,,,,1014.3243186669988,1014.3348270829993,1014.3348270829993,1042.5938233750003,She is talking to her friend and telling her how she is in a "diet cult". she is worried about her health and is not able to finish telling her off before going to work,1,[28.266309832999468],[28.2663133749993],,,,,,,,,,,,,,,,,,,,,,977.9667229579991,977.9746095829996,977.9746095829996,977.9746095829996,980.0322830000005,1,[2.063362500000949],[2.0633786670005065],1013.5285750000003,1013.5337738329999,1014.3235589169999,1,[0.7943947080002545],[0.794398000000001],,,,,,,p_3,001,2024-05-04_11h56.23.373,speech_rate,2023.2.3,None,2024-05-04 11h56.35.950509 -0700,
,Someday_120_condition.wav,Someday__Someday__Maybe__Unabridged___File_053_of_116_2.wav,Everything you need is in each packet so it takes the guesswork out of dieting You sound like you've joined a cult What happens when you have to go back to the real world the world where you have to think for yourself Hopefully I'll be so weak and frail that food will have lost its appeal entirely Great plan And who's on Lisa today I'm pretty sure today's show is Women Who Wish Their Best Friends Would Stop Judging Them Har har I'm going to work now Do you want me to take the TV cord with me,"What topic is discussed on Lisa's show, in the narrator's joke?",A. Weight loss programs,B. The challenges of dieting,C. Women's relationships with their best friends,D. The appeal of joining a cult,C. Women's relationships with their best friends,yes,27.72,,,,,,,,,,,,,0,21,21,21,0,0,0,0,,,,,,,,,,,,,,,,,,,,,,,,,,,,,,,,,,,,,,,,,,,,,,,,,,,,,,,,,,,,,,,,,,,,,,,,,,,,,,,,,,,,,,,,,,p_3,001,2024-05-04_11h56.23.373,speech_rate,2023.2.3,None,2024-05-04 11h56.35.950509 -0700,
,Someday_120_condition.wav,Someday__Someday__Maybe__Unabridged___File_053_of_116_2.wav,Everything you need is in each packet so it takes the guesswork out of dieting You sound like you've joined a cult What happens when you have to go back to the real world the world where you have to think for yourself Hopefully I'll be so weak and frail that food will have lost its appeal entirely Great plan And who's on Lisa today I'm pretty sure today's show is Women Who Wish Their Best Friends Would Stop Judging Them Har har I'm going to work now Do you want me to take the TV cord with me,"What topic is discussed on Lisa's show, in the narrator's joke?",A. Weight loss programs,B. The challenges of dieting,C. Women's relationships with their best friends,D. The appeal of joining a cult,C. Women's relationships with their best friends,yes,27.72,,,,,,,,,,,,,0,21,21,21,,,,,,,,,,,,,,,,,,,,,,,,,,,,,,,,,,,,,,,,,,,,,,,,,,,,,1042.5943214170002,1064.2129288750002,0,,,1,21.60841770800107,21.608421083001303,0,,,0,,,,,,,,,,,,,,,,,,,,,,,,,,,,,,p_3,001,2024-05-04_11h56.23.373,speech_rate,2023.2.3,None,2024-05-04 11h56.35.950509 -0700,
,Someday_23_condition-4x.wav,Someday__Someday__Maybe__Unabridged___File_014_of_116_0.wav,If you don't have any questions about the material then state your name and agency and go ahead whenever you're ready thanks so much I try to swallow but my throat is too dry This is the kind of room that's hard to do well in If they're in the mood to talk I can crack a few jokes make a small connection give myself a moment to settle down but these girls are all business I look down at the paper I'm not going to panic or ask for more time or tell them I didn't really have a chance to go over it yet I'm going to remain calm as if I'm a professional,How does the narrator plan to handle the situation in the room?,A. By making small talk and jokes,B. By panicking and asking for more time,C. By admitting she didn't prepare,D. By remaining calm and professional,D. By remaining calm and professional,no,7.325,,,,,,,,,,,,,0,22,22,22,,,,,,,,,1064.2207078749998,,,,,,,,,,,,,,,1066.7079547079993,1066.720445416666,1066.7213659999998,1074.0538552500002,1074.0567632080001,1074.0785272079993,1074.3455118330003,1074.3455118330003,1078.6860491669995,1082.8155565420002,1.5083333333333333,7.037230874999295,1,[4.142720290999932],[4.14272683299896],,,,,,,,,,,,,,,1082.815996583,1090.2916748749994,0,,,0,,,0,,,1,7.466491291999773,7.466495167000176,,,,,,,,1064.2134727079992,1064.2207078749998,1064.2207078749998,1064.2207078749998,1066.7076739169988,1,[2.492243916998632],[2.4922579579997546],,,,,,,,,,,,,p_3,001,2024-05-04_11h56.23.373,speech_rate,2023.2.3,None,2024-05-04 11h56.35.950509 -0700,
,Someday_102_condition.wav,Someday__Someday__Maybe__Unabridged___File_045_of_116_0.wav,Well it's just mainly a gag you know says the man in glasses a gag I repeat Yes a running gag like how she laughs on the nanny But we don't want it to sound anything like her laugh the man in the back of the room says emphatically Yes of course it's a laugh That's all her own just a girl who laughs funny for no particular reason the man with glasses says Okay Thanks and sorry but what do I do do,What is the character's laugh intended to be in the audition scene?,A. A running gag,B. A natural laugh,C. A villain's laugh,D. A serious and dramatic laugh,A. A running gag,yes,28.03,,,,,,,,,,,,,0,23,23,23,0,0,0,0,0,0,0,0,1124.3028406249996,,,,,,,,,,,,,,,1092.2454372079992,1092.2774814583322,1092.2756252079998,1120.2937762919992,1120.3102800830002,1120.331556916999,1120.5437380000003,1120.5437380000003,1122.490390125,1123.3350328329998,10.0,2.4524045000016486,1,[0.853936583000177],[0.8539395829993737],,,,,,,1124.291572917,1124.3028406249996,1124.3028406249996,1154.2919877080003,"Two guys are giving her her acting part, explaining the character's "gag" of laughing funny, like the Nanny but not the same sound. she asks at the end what her caharacter "does" so it must not have much personality",0,,,,,,,,,,,,,,,,,,,,,,,,1090.2922455419994,1090.3043450829991,1090.3043450829991,1090.3043450829991,1092.2451838329998,1,[1.9523429580003722],[1.952346000000034],1123.3355759999995,1123.340347207999,1124.290707832999,1,[0.9545094999994035],[0.9545127919991501],1154.31073775,1154.31073775,,,,,p_3,001,2024-05-04_11h56.23.373,speech_rate,2023.2.3,None,2024-05-04 11h56.35.950509 -0700,
,Someday_102_condition.wav,Someday__Someday__Maybe__Unabridged___File_045_of_116_0.wav,Well it's just mainly a gag you know says the man in glasses a gag I repeat Yes a running gag like how she laughs on the nanny But we don't want it to sound anything like her laugh the man in the back of the room says emphatically Yes of course it's a laugh That's all her own just a girl who laughs funny for no particular reason the man with glasses says Okay Thanks and sorry but what do I do do,What is the character's laugh intended to be in the audition scene?,A. A running gag,B. A natural laugh,C. A villain's laugh,D. A serious and dramatic laugh,A. A running gag,yes,28.03,,,,,,,,,,,,,0,23,23,23,0,0,0,0,,,,,,,,,,,,,,,,,,,,,,,,,,,,,,,,,,,,,,,,,,,,,,,,,,,,,,,,,,,,,,,,,,,,,,,,,,,,,,,,,,,,,,,,,,p_3,001,2024-05-04_11h56.23.373,speech_rate,2023.2.3,None,2024-05-04 11h56.35.950509 -0700,
,Someday_102_condition.wav,Someday__Someday__Maybe__Unabridged___File_045_of_116_0.wav,Well it's just mainly a gag you know says the man in glasses a gag I repeat Yes a running gag like how she laughs on the nanny But we don't want it to sound anything like her laugh the man in the back of the room says emphatically Yes of course it's a laugh That's all her own just a girl who laughs funny for no particular reason the man with glasses says Okay Thanks and sorry but what do I do do,What is the character's laugh intended to be in the audition scene?,A. A running gag,B. A natural laugh,C. A villain's laugh,D. A serious and dramatic laugh,A. A running gag,yes,28.03,,,,,,,,,,,,,0,23,23,23,,,,,,,,,,,,,,,,,,,,,,,,,,,,,,,,,,,,,,,,,,,,,,,,,,,,,1154.2924281249998,1157.5330255829995,1,3.2314612080008374,3.231463874999463,0,,,0,,,0,,,,,,,,,,,,,,,,,,,,,,,,,,,,,,p_3,001,2024-05-04_11h56.23.373,speech_rate,2023.2.3,None,2024-05-04 11h56.35.950509 -0700,
,Someday_5_condition.wav,Someday__Someday__Maybe__Unabridged___File_005_of_116_4.wav,I am late Frank is the neighbor whose apartment we can see into from the windows in the back of our brownstone Frank leads a mysterious solitary life but one you can set a clock by He rises at eight sits in front of a computer from nine to one goes out and gets a sandwich is back at the computer from two until six thirty is gone from six thirty to eight and then watches TV from eight until eleven p m after which he goes promptly to sleep The schedule never changes No one ever comes over,"Who is Frank, and what is his daily routine?","A. Frank is the narrator's neighbor, and he works from home.","B. Frank is the narrator's roommate, and he works from home.","C. Frank is the narrator's friend, and he enjoys watching TV all day.","D. Frank is the narrator's landlord, and he travels frequently.","A. Frank is the narrator's neighbor, and he works from home.",yes,29.72003125,,,,,,,,,,,,,0,24,24,24,0,0,0,0,0,0,0,0,1193.823636707999,,,,,,,,,,,,,,,1160.0928522920003,1160.1415583329988,1160.132571917,1189.8603017080004,1189.8648818330003,1189.886945667,1190.1543815000005,1190.1543815000005,1192.426177416999,1193.0547646670002,9.966666666666667,2.5108434579997265,1,[0.6416696249998495],[0.6416722079993633],,,,,,,1193.8121955829993,1193.823636707999,1193.823636707999,1223.8128874579998,"She is running late for something, but then starts talking about Frank's schedule. He has a very rigid schedule, computer 9-1, out for sandwich, then computer till 4, then back at 6",0,,,,,,,,,,,,,,,,,,,,,,,,1157.533518791999,1157.5402688329996,1157.5402688329996,1157.5402688329996,1160.0925979999993,1,[2.5575720420001744],[2.557575792001444],1193.0552616669993,1193.0756570419999,1193.811395249999,1,[0.7554876249996596],[0.7554909579994273],1223.835358708,1223.835358708,,,,,p_3,001,2024-05-04_11h56.23.373,speech_rate,2023.2.3,None,2024-05-04 11h56.35.950509 -0700,
,Someday_5_condition.wav,Someday__Someday__Maybe__Unabridged___File_005_of_116_4.wav,I am late Frank is the neighbor whose apartment we can see into from the windows in the back of our brownstone Frank leads a mysterious solitary life but one you can set a clock by He rises at eight sits in front of a computer from nine to one goes out and gets a sandwich is back at the computer from two until six thirty is gone from six thirty to eight and then watches TV from eight until eleven p m after which he goes promptly to sleep The schedule never changes No one ever comes over,"Who is Frank, and what is his daily routine?","A. Frank is the narrator's neighbor, and he works from home.","B. Frank is the narrator's roommate, and he works from home.","C. Frank is the narrator's friend, and he enjoys watching TV all day.","D. Frank is the narrator's landlord, and he travels frequently.","A. Frank is the narrator's neighbor, and he works from home.",yes,29.72003125,,,,,,,,,,,,,0,24,24,24,0,0,0,0,,,,,,,,,,,,,,,,,,,,,,,,,,,,,,,,,,,,,,,,,,,,,,,,,,,,,,,,,,,,,,,,,,,,,,,,,,,,,,,,,,,,,,,,,,p_3,001,2024-05-04_11h56.23.373,speech_rate,2023.2.3,None,2024-05-04 11h56.35.950509 -0700,
,Someday_5_condition.wav,Someday__Someday__Maybe__Unabridged___File_005_of_116_4.wav,I am late Frank is the neighbor whose apartment we can see into from the windows in the back of our brownstone Frank leads a mysterious solitary life but one you can set a clock by He rises at eight sits in front of a computer from nine to one goes out and gets a sandwich is back at the computer from two until six thirty is gone from six thirty to eight and then watches TV from eight until eleven p m after which he goes promptly to sleep The schedule never changes No one ever comes over,"Who is Frank, and what is his daily routine?","A. Frank is the narrator's neighbor, and he works from home.","B. Frank is the narrator's roommate, and he works from home.","C. Frank is the narrator's friend, and he enjoys watching TV all day.","D. Frank is the narrator's landlord, and he travels frequently.","A. Frank is the narrator's neighbor, and he works from home.",yes,29.72003125,,,,,,,,,,,,,0,24,24,24,,,,,,,,,,,,,,,,,,,,,,,,,,,,,,,,,,,,,,,,,,,,,,,,,,,,,1223.813342042,1231.6462242079997,1,7.820263291001538,7.820266500000798,0,,,0,,,0,,,,,,,,,,,,,,,,,,,,,,,,,,,,,,p_3,001,2024-05-04_11h56.23.373,speech_rate,2023.2.3,None,2024-05-04 11h56.35.950509 -0700,
,Someday_24_condition-2x.wav,Someday__Someday__Maybe__Unabridged___File_015_of_116_0.wav,Thanks I say and then for no reason Any adjustments Stupid stupid Don't ask to do it again when you don't know what you did in the first place They both cock their heads at the same angle like two puppies in a pet store window Then they nod to each other again Sure yeah let's do one more just for kicks Yeah I mean that was great but let's in this one really have fun with it but also take it seriously like you did Yeah serious but fun like you're talking to your best friend Yeah like you're sharing a secret with your best friend,What do the casting directors suggest after the narrator's audition?,A. They compliment her performance,B. They ask her to do it in a more fun but serious way,C. They reject her immediately,D. They offer her the role,B. They ask her to do it in a more fun but serious way,yes,14.95,,,,,,,,,,,,,0,25,25,25,0,0,0,0,0,0,0,0,1255.5328714999996,,,,,,,,,,,,,,,1234.2473317080003,1234.2626157086654,1234.2672804169997,1249.2140531249988,1249.2179952080005,1249.2283425419992,1249.4927273329995,1249.4927273329995,1253.8517104170005,1254.4541836249991,8.5,4.5990523749987915,1,[0.6114169579996087],[0.6114197919996514],,,,,,,1255.5216419999997,1255.5328714999996,1255.5328714999996,1282.7501647499994,"She is getting feedback from two new yorkers on her performance, feeling very awkward and nervous about it. they tell her to do it one more time for kicks but to "really have fun with it this time"",1,[27.225220040998465],[27.225223582998296],,,,,,,,,,,,,,,,,,,,,,1231.6467232920004,1231.6617684169996,1231.6617684169996,1231.6617684169996,1234.2470578329994,1,[2.5986460839994834],[2.5986494589997164],1254.4546973750003,1254.4630464580005,1255.5206768749995,1,[1.0653705410004477],[1.0653734580009768],,,,,,,p_3,001,2024-05-04_11h56.23.373,speech_rate,2023.2.3,None,2024-05-04 11h56.35.950509 -0700,
,Someday_24_condition-2x.wav,Someday__Someday__Maybe__Unabridged___File_015_of_116_0.wav,Thanks I say and then for no reason Any adjustments Stupid stupid Don't ask to do it again when you don't know what you did in the first place They both cock their heads at the same angle like two puppies in a pet store window Then they nod to each other again Sure yeah let's do one more just for kicks Yeah I mean that was great but let's in this one really have fun with it but also take it seriously like you did Yeah serious but fun like you're talking to your best friend Yeah like you're sharing a secret with your best friend,What do the casting directors suggest after the narrator's audition?,A. They compliment her performance,B. They ask her to do it in a more fun but serious way,C. They reject her immediately,D. They offer her the role,B. They ask her to do it in a more fun but serious way,yes,14.95,,,,,,,,,,,,,0,25,25,25,0,0,0,0,,,,,,,,,,,,,,,,,,,,,,,,,,,,,,,,,,,,,,,,,,,,,,,,,,,,,,,,,,,,,,,,,,,,,,,,,,,,,,,,,,,,,,,,,,p_3,001,2024-05-04_11h56.23.373,speech_rate,2023.2.3,None,2024-05-04 11h56.35.950509 -0700,
,Someday_24_condition-2x.wav,Someday__Someday__Maybe__Unabridged___File_015_of_116_0.wav,Thanks I say and then for no reason Any adjustments Stupid stupid Don't ask to do it again when you don't know what you did in the first place They both cock their heads at the same angle like two puppies in a pet store window Then they nod to each other again Sure yeah let's do one more just for kicks Yeah I mean that was great but let's in this one really have fun with it but also take it seriously like you did Yeah serious but fun like you're talking to your best friend Yeah like you're sharing a secret with your best friend,What do the casting directors suggest after the narrator's audition?,A. They compliment her performance,B. They ask her to do it in a more fun but serious way,C. They reject her immediately,D. They offer her the role,B. They ask her to do it in a more fun but serious way,yes,14.95,,,,,,,,,,,,,0,25,25,25,,,,,,,,,,,,,,,,,,,,,,,,,,,,,,,,,,,,,,,,,,,,,,,,,,,,,1282.7506247500005,1290.8004963330004,0,,,1,8.039290124999752,8.039293833999182,0,,,0,,,,,,,,,,,,,,,,,,,,,,,,,,,,,,p_3,001,2024-05-04_11h56.23.373,speech_rate,2023.2.3,None,2024-05-04 11h56.35.950509 -0700,
,Someday_89_condition-2x.wav,Someday__Someday__Maybe__Unabridged___File_039_of_116_2.wav,Excuse me can you tell me what day of the week it is they'll say and laugh I'm leaning awkwardly against the wall near the door not sure what to do while I wait Maybe I should sit Plenty of people use sitting as a way to pass the time I look at the giant table and multitude of chairs Unless a bunch of people are going to join us this seems a strange room to choose for a meeting of two Yes I think I'll sit But I'm not sure which spot to choose I'm not totally sure I even want to sit yet,Why does the narrator feel uncertain about sitting in the room?,A. She is worried about her outfit,B. She doesn't know which chair to choose,C. She prefers to stand,D. She has somewhere else to be,B. She doesn't know which chair to choose,yes,14.37,,,,,,,,,,,,,0,26,26,26,0,0,0,0,0,0,0,0,1310.2360937499998,,,,,,,,,,,,,,,1291.8228808330005,1291.838313833667,1291.8434307919997,1306.217225041999,1306.2207340000004,1306.2317769170004,1306.4903167499997,1306.4903167499997,1308.7678422919998,1309.3905403749995,8.966666666666667,2.5115602080004464,1,[0.632233250000354],[0.6322360419999313],,,,,,,1310.224975707999,1310.2360937499998,1310.2360937499998,1339.7274832499988,She is sitting down for an interview in a surprisingly large room for an "interview with two" she sheepishly asks them what to do and she is feeling anxious about it,1,[29.498980084001232],[29.498983584000598],,,,,,,,,,,,,,,,,,,,,,1290.8010257919996,1290.8082355419992,1290.8082355419992,1290.8082355419992,1291.822697874999,1,[1.019932750001317],[1.0199359170001117],1309.3910287079998,1309.3989255830002,1310.2242943330002,1,[0.8326344580000296],[0.8326374999996915],,,,,,,p_3,001,2024-05-04_11h56.23.373,speech_rate,2023.2.3,None,2024-05-04 11h56.35.950509 -0700,
,Someday_89_condition-2x.wav,Someday__Someday__Maybe__Unabridged___File_039_of_116_2.wav,Excuse me can you tell me what day of the week it is they'll say and laugh I'm leaning awkwardly against the wall near the door not sure what to do while I wait Maybe I should sit Plenty of people use sitting as a way to pass the time I look at the giant table and multitude of chairs Unless a bunch of people are going to join us this seems a strange room to choose for a meeting of two Yes I think I'll sit But I'm not sure which spot to choose I'm not totally sure I even want to sit yet,Why does the narrator feel uncertain about sitting in the room?,A. She is worried about her outfit,B. She doesn't know which chair to choose,C. She prefers to stand,D. She has somewhere else to be,B. She doesn't know which chair to choose,yes,14.37,,,,,,,,,,,,,0,26,26,26,0,0,0,0,,,,,,,,,,,,,,,,,,,,,,,,,,,,,,,,,,,,,,,,,,,,,,,,,,,,,,,,,,,,,,,,,,,,,,,,,,,,,,,,,,,,,,,,,,p_3,001,2024-05-04_11h56.23.373,speech_rate,2023.2.3,None,2024-05-04 11h56.35.950509 -0700,
,Someday_89_condition-2x.wav,Someday__Someday__Maybe__Unabridged___File_039_of_116_2.wav,Excuse me can you tell me what day of the week it is they'll say and laugh I'm leaning awkwardly against the wall near the door not sure what to do while I wait Maybe I should sit Plenty of people use sitting as a way to pass the time I look at the giant table and multitude of chairs Unless a bunch of people are going to join us this seems a strange room to choose for a meeting of two Yes I think I'll sit But I'm not sure which spot to choose I'm not totally sure I even want to sit yet,Why does the narrator feel uncertain about sitting in the room?,A. She is worried about her outfit,B. She doesn't know which chair to choose,C. She prefers to stand,D. She has somewhere else to be,B. She doesn't know which chair to choose,yes,14.37,,,,,,,,,,,,,0,26,26,26,,,,,,,,,,,,,,,,,,,,,,,,,,,,,,,,,,,,,,,,,,,,,,,,,,,,,1339.7279517079987,1345.5034982919988,0,,,1,5.764777417000005,5.764780834000703,0,,,0,,,,,,,,,,,,,,,,,,,,,,,,,,,,,,p_3,001,2024-05-04_11h56.23.373,speech_rate,2023.2.3,None,2024-05-04 11h56.35.950509 -0700,
,Someday_20_condition-2x.wav,Someday__Someday__Maybe__Unabridged___File_012_of_116_1.wav,Upstairs the waiting room is crowded which means there must be a few different casting calls There are boys and girls near the age of the elevator twins a couple of men in their 50s both in suit and tie and several girls who remind me of me but a better more put together me the me who would play me in the TV movie of the fictional life of the real me I sign in Name time arrived time scheduled agency social security number,What observation does the narrator make about the individuals in the waiting room?,A. They are all likely there for the same casting call,B. They are unorganized and scattered,"C. They appear to be different versions of the narrator, better and more composed",D. They are unrelated to the narrator's field of work,"C. They appear to be different versions of the narrator, better and more composed",yes,13.73,,,,,,,,,,,,,0,27,27,27,0,0,0,0,0,0,0,0,1363.682593292,,,,,,,,,,,,,,,1346.72023325,1346.7356106246664,1346.7402957499999,1360.461341541999,1360.4709695000001,1360.4815325830004,1360.7475955829996,1360.7475955829996,1362.5421845,1363.077888624999,9.958333333333334,2.0363136250016396,1,[0.5448107080010232],[0.5448138330011716],,,,,,,1363.6717477919992,1363.682593292,1363.682593292,1391.762919499999,"She is signing in for an interview, there are lots of people in the waiting room she feels inferior to, like dopplegangers of her but better prepared. Then she signs in with her information ",1,[28.087836874999994],[28.087840457999846],,,,,,,,,,,,,,,,,,,,,,1345.504021625,1345.5108677079988,1345.5108677079988,1345.5108677079988,1346.7200179579995,1,[1.214287583999976],[1.214290500000061],1363.0784104579998,1363.085909292,1363.671033749999,1,[0.5919725409985404],[0.5919757079991541],,,,,,,p_3,001,2024-05-04_11h56.23.373,speech_rate,2023.2.3,None,2024-05-04 11h56.35.950509 -0700,
,Someday_20_condition-2x.wav,Someday__Someday__Maybe__Unabridged___File_012_of_116_1.wav,Upstairs the waiting room is crowded which means there must be a few different casting calls There are boys and girls near the age of the elevator twins a couple of men in their 50s both in suit and tie and several girls who remind me of me but a better more put together me the me who would play me in the TV movie of the fictional life of the real me I sign in Name time arrived time scheduled agency social security number,What observation does the narrator make about the individuals in the waiting room?,A. They are all likely there for the same casting call,B. They are unorganized and scattered,"C. They appear to be different versions of the narrator, better and more composed",D. They are unrelated to the narrator's field of work,"C. They appear to be different versions of the narrator, better and more composed",yes,13.73,,,,,,,,,,,,,0,27,27,27,0,0,0,0,,,,,,,,,,,,,,,,,,,,,,,,,,,,,,,,,,,,,,,,,,,,,,,,,,,,,,,,,,,,,,,,,,,,,,,,,,,,,,,,,,,,,,,,,,p_3,001,2024-05-04_11h56.23.373,speech_rate,2023.2.3,None,2024-05-04 11h56.35.950509 -0700,
,Someday_20_condition-2x.wav,Someday__Someday__Maybe__Unabridged___File_012_of_116_1.wav,Upstairs the waiting room is crowded which means there must be a few different casting calls There are boys and girls near the age of the elevator twins a couple of men in their 50s both in suit and tie and several girls who remind me of me but a better more put together me the me who would play me in the TV movie of the fictional life of the real me I sign in Name time arrived time scheduled agency social security number,What observation does the narrator make about the individuals in the waiting room?,A. They are all likely there for the same casting call,B. They are unorganized and scattered,"C. They appear to be different versions of the narrator, better and more composed",D. They are unrelated to the narrator's field of work,"C. They appear to be different versions of the narrator, better and more composed",yes,13.73,,,,,,,,,,,,,0,27,27,27,,,,,,,,,,,,,,,,,,,,,,,,,,,,,,,,,,,,,,,,,,,,,,,,,,,,,1391.7633902079997,1398.6253365829998,0,,,0,,,1,6.84925212500093,6.849255584000275,0,,,,,,,,,,,,,,,,,,,,,,,,,,,,,,p_3,001,2024-05-04_11h56.23.373,speech_rate,2023.2.3,None,2024-05-04 11h56.35.950509 -0700,
