index,wav_file,old_name,segment_text,question,C1,C2,C3,C4,C_correct,summary,duration,training.thisRepN,training.thisTrialN,training.thisN,training.thisIndex,sum_true.thisRepN,sum_true.thisTrialN,sum_true.thisN,sum_true.thisIndex,dummy_loop.thisRepN,dummy_loop.thisTrialN,dummy_loop.thisN,dummy_loop.thisIndex,experiment.thisRepN,experiment.thisTrialN,experiment.thisN,experiment.thisIndex,sum_true_exp.thisRepN,sum_true_exp.thisTrialN,sum_true_exp.thisN,sum_true_exp.thisIndex,dummy_loop_exp.thisRepN,dummy_loop_exp.thisTrialN,dummy_loop_exp.thisN,dummy_loop_exp.thisIndex,thisRow.t,notes,Experimenter.started,reminder.started,Experimenter.stopped,Instructions.started,Instructions.stopped,Start_Segment_Train.started,Play_train.started,Trial_counter_train.started,text_5.started,Start_Segment_Train.stopped,Play_train.numClicks,Play_train.timesOn,Play_train.timesOff,Training_Segment.started,Experimen_audio.started,polygon.started,polygon.stopped,Training_Segment.stopped,Rating.started,slider.started,text_3.started,button_2.started,Rating.stopped,slider.response,slider.rt,button_2.numClicks,button_2.timesOn,button_2.timesOff,Start_Summary.started,text_2.started,Start_Summary.stopped,summary_button.numClicks,summary_button.timesOn,summary_button.timesOff,Summary.started,textbox.started,summary_done.started,Summary.stopped,textbox.text,summary_done.numClicks,summary_done.timesOn,summary_done.timesOff,Multiple_Choice_2.started,Multiple_Choice_2.stopped,A.numClicks,A.timesOn,A.timesOff,B.numClicks,B.timesOn,B.timesOff,C.numClicks,C.timesOn,C.timesOff,D.numClicks,D.timesOn,D.timesOff,Start_Exp.started,Start_exp.started,Start.started,Start_Exp.stopped,Start.numClicks,Start.timesOn,Start.timesOff,Start_Segment.started,Play.started,Trial_counter.started,text_6.started,Start_Segment.stopped,Play.numClicks,Play.timesOn,Play.timesOff,Start_Sum_Exp.started,text_4.started,Start_Sum_Exp.stopped,sum_button.numClicks,sum_button.timesOn,sum_button.timesOff,textbox.stopped,summary_done.stopped,Thanks.started,text_7.started,text_7.stopped,Thanks.stopped,participant,session,date,expName,psychopyVersion,frameRate,expStart,
1,Someday_trial_condition.wav,Someday__Someday__Maybe__Unabridged___File_069_of_116_3.wav,It's a gut feeling You can't nickname him He's a real person not a joke person You don't have to tell me Only a real person would try to shake hands with my best friend's foot Jane you're not explaining it right It was very romantic And thankfully our steaming bowl of bright yellow melted cheese with flecks of green chilies arrives Listen she says dipping a chip into the creamy depths You're the one with the brand new personality I'm still the same old Jane,"What does the narrator have, according to Jane?",A) A new recipe for dipping sauce,B) A new personality,C) A new restaurant suggestion,D) A new pair of shoes,B) A new personality,yes,30,0,0,0,0,0,0,0,0,0,0,0,0,,,,,,,,,,,,,44.761837375,,0.00931291599999895,0.01833179099999427,2.0178392499999944,2.0178487909999916,2.5820218749999952,2.5939418330000024,2.6109783329999914,2.6109783329999914,2.6109783329999914,4.596840374999999,1,[1.9934535839999938],[1.993456167000005],4.597194165999994,4.6460415830000015,4.63768241599999,34.66161674999999,34.632027832999995,34.65329395799999,34.91719216599999,34.91719216599999,37.28707445799999,37.96582416599999,10,2.6085998329999995,1,[0.6880059169999981],[0.6880085419999915],37.96805720799999,37.97378841599999,44.71982312499999,1,[6.751059417000008],[6.751062292],44.720647458,44.761837375,44.761837375,72.65075458300001,This person is talking about another person who tried to shake hands with someone's foot? But then the cheese dip arrived luckily.,1,[27.90222804199999],[27.902230916999997],,,,,,,,,,,,,,,,,,,,,,,,,,,,,,,,,,,,,,,,,,p_1,001,2024-04-26_10h49.59.169,speech_rate,2023.2.3,None,2024-04-26 10h50.14.364240 -0700,
1,Someday_trial_condition.wav,Someday__Someday__Maybe__Unabridged___File_069_of_116_3.wav,It's a gut feeling You can't nickname him He's a real person not a joke person You don't have to tell me Only a real person would try to shake hands with my best friend's foot Jane you're not explaining it right It was very romantic And thankfully our steaming bowl of bright yellow melted cheese with flecks of green chilies arrives Listen she says dipping a chip into the creamy depths You're the one with the brand new personality I'm still the same old Jane,"What does the narrator have, according to Jane?",A) A new recipe for dipping sauce,B) A new personality,C) A new restaurant suggestion,D) A new pair of shoes,B) A new personality,yes,30,0,0,0,0,0,0,0,0,,,,,,,,,,,,,,,,,,,,,,,,,,,,,,,,,,,,,,,,,,,,,,,,,,,,,,,,,,,,,,,,,,,,,,,,,,,,,,,,,,,,,,,,,,,,,,,,,,,,,,p_1,001,2024-04-26_10h49.59.169,speech_rate,2023.2.3,None,2024-04-26 10h50.14.364240 -0700,
1,Someday_trial_condition.wav,Someday__Someday__Maybe__Unabridged___File_069_of_116_3.wav,It's a gut feeling You can't nickname him He's a real person not a joke person You don't have to tell me Only a real person would try to shake hands with my best friend's foot Jane you're not explaining it right It was very romantic And thankfully our steaming bowl of bright yellow melted cheese with flecks of green chilies arrives Listen she says dipping a chip into the creamy depths You're the one with the brand new personality I'm still the same old Jane,"What does the narrator have, according to Jane?",A) A new recipe for dipping sauce,B) A new personality,C) A new restaurant suggestion,D) A new pair of shoes,B) A new personality,yes,30,0,0,0,0,,,,,,,,,,,,,,,,,,,,,,,,,,,,,,,,,,,,,,,,,,,,,,,,,,,,,,,,,,,,,,,,,72.651271708,82.820022166,0,,,1,10.146767208,10.146770000000004,0,,,0,,,,,,,,,,,,,,,,,,,,,,,,,,,,,,p_1,001,2024-04-26_10h49.59.169,speech_rate,2023.2.3,None,2024-04-26 10h50.14.364240 -0700,
2,Someday_trial_condition-5x.wav,Someday__Someday__Maybe__Unabridged___File_103_of_116_1.wav,Isn't halfway where two people usually meet Well in general maybe But tonight this is sort of a big deal for me It's my night I'm not sure you you don't think I get it Well no I mean how could you I'm having trouble making sense of this conversation James is speaking with authority but there's something wrong Something feels so wrong somehow I don't care about waving and smiling and having my picture taken with him,"How does James speak, according to the narrator?",A) With compassion,B) With grief,C) With hesitation,D) With authority,D) With authority,yes,6.2,0,1,1,1,0,0,0,0,0,0,0,0,,,,,,,,,,,,,100.45069183300001,,,,,,,82.82079787499998,82.83301858299998,82.83301858299998,82.83301858299998,86.370383833,1,[3.5457663749999995],[3.5457711249999875],86.37065033299999,86.38398416666665,86.38485591599999,92.58786166600001,92.568507041,92.579663875,92.834637541,92.834637541,96.01847125,97.97507612499999,1.2666666666666666,4.77862595900001,1,[1.9662209159999975],[1.9662232909999773],97.97559979100001,97.983700666,100.437463541,1,[2.4614114169999937],[2.461414583999982],100.43830304099998,100.45069183300001,100.45069183300001,110.353431583,"something something "wrong" something something
",1,[9.910845709],[9.910848916999981],,,,,,,,,,,,,,,,,,,,,,,,,,,,,,,,,,,,,,,,,,p_1,001,2024-04-26_10h49.59.169,speech_rate,2023.2.3,None,2024-04-26 10h50.14.364240 -0700,
2,Someday_trial_condition-5x.wav,Someday__Someday__Maybe__Unabridged___File_103_of_116_1.wav,Isn't halfway where two people usually meet Well in general maybe But tonight this is sort of a big deal for me It's my night I'm not sure you you don't think I get it Well no I mean how could you I'm having trouble making sense of this conversation James is speaking with authority but there's something wrong Something feels so wrong somehow I don't care about waving and smiling and having my picture taken with him,"How does James speak, according to the narrator?",A) With compassion,B) With grief,C) With hesitation,D) With authority,D) With authority,yes,6.2,0,1,1,1,0,0,0,0,,,,,,,,,,,,,,,,,,,,,,,,,,,,,,,,,,,,,,,,,,,,,,,,,,,,,,,,,,,,,,,,,,,,,,,,,,,,,,,,,,,,,,,,,,,,,,,,,,,,,,p_1,001,2024-04-26_10h49.59.169,speech_rate,2023.2.3,None,2024-04-26 10h50.14.364240 -0700,
2,Someday_trial_condition-5x.wav,Someday__Someday__Maybe__Unabridged___File_103_of_116_1.wav,Isn't halfway where two people usually meet Well in general maybe But tonight this is sort of a big deal for me It's my night I'm not sure you you don't think I get it Well no I mean how could you I'm having trouble making sense of this conversation James is speaking with authority but there's something wrong Something feels so wrong somehow I don't care about waving and smiling and having my picture taken with him,"How does James speak, according to the narrator?",A) With compassion,B) With grief,C) With hesitation,D) With authority,D) With authority,yes,6.2,0,1,1,1,,,,,,,,,,,,,,,,,,,,,,,,,,,,,,,,,,,,,,,,,,,,,,,,,,,,,,,,,,,,,,,,,110.35391595799999,115.79643024999999,0,,,0,,,1,5.431584332999989,5.4315871670000035,0,,,,,,,,,,,,,,,,,,,,,,,,,,,,,,p_1,001,2024-04-26_10h49.59.169,speech_rate,2023.2.3,None,2024-04-26 10h50.14.364240 -0700,
,Someday_23_condition-2x.wav,Someday__Someday__Maybe__Unabridged___File_014_of_116_0.wav,If you don't have any questions about the material then state your name and agency and go ahead whenever you're ready thanks so much I try to swallow but my throat is too dry This is the kind of room that's hard to do well in If they're in the mood to talk I can crack a few jokes make a small connection give myself a moment to settle down but these girls are all business I look down at the paper I'm not going to panic or ask for more time or tell them I didn't really have a chance to go over it yet I'm going to remain calm as if I'm a professional,How does the narrator plan to handle the situation in the room?,A. By making small talk and jokes,B. By panicking and asking for more time,C. By admitting she didn't prepare,D. By remaining calm and professional,D. By remaining calm and professional,yes,14.64996875,,,,,,,,,,,,,0,0,0,0,0,0,0,0,0,0,0,0,238.172235291,,,,,,,,,,,,,,,214.27801966599998,214.30811579133336,214.299070041,228.94216879099997,228.959765125,228.98116341600002,229.199076041,229.199076041,231.41394033299997,232.293466958,9.95,2.4086294579999503,1,[0.8884966250000161],[0.8884994169999914],,,,,,,238.160931166,238.172235291,238.172235291,254.73519341600002,"person is anxious about something, but is reassuring themselves that they will stay calm. ",1,[16.571026082999992],[16.571029667000005],,,,,,,,,,,,,,,115.79692616599999,115.804466416,115.804466416,211.966389541,1,[96.16860070800001],[96.16860341600002],212.012573041,212.02372250000002,212.02372250000002,212.02372250000002,214.277182708,1,[2.260346000000027],[2.2603664580000213],232.294317708,232.30797504100002,238.160128666,1,[5.8650853330000245],[5.8650879169999826],,,,,,,p_1,001,2024-04-26_10h49.59.169,speech_rate,2023.2.3,None,2024-04-26 10h50.14.364240 -0700,
,Someday_23_condition-2x.wav,Someday__Someday__Maybe__Unabridged___File_014_of_116_0.wav,If you don't have any questions about the material then state your name and agency and go ahead whenever you're ready thanks so much I try to swallow but my throat is too dry This is the kind of room that's hard to do well in If they're in the mood to talk I can crack a few jokes make a small connection give myself a moment to settle down but these girls are all business I look down at the paper I'm not going to panic or ask for more time or tell them I didn't really have a chance to go over it yet I'm going to remain calm as if I'm a professional,How does the narrator plan to handle the situation in the room?,A. By making small talk and jokes,B. By panicking and asking for more time,C. By admitting she didn't prepare,D. By remaining calm and professional,D. By remaining calm and professional,yes,14.64996875,,,,,,,,,,,,,0,0,0,0,0,0,0,0,,,,,,,,,,,,,,,,,,,,,,,,,,,,,,,,,,,,,,,,,,,,,,,,,,,,,,,,,,,,,,,,,,,,,,,,,,,,,,,,,,,,,,,,,,p_1,001,2024-04-26_10h49.59.169,speech_rate,2023.2.3,None,2024-04-26 10h50.14.364240 -0700,
,Someday_23_condition-2x.wav,Someday__Someday__Maybe__Unabridged___File_014_of_116_0.wav,If you don't have any questions about the material then state your name and agency and go ahead whenever you're ready thanks so much I try to swallow but my throat is too dry This is the kind of room that's hard to do well in If they're in the mood to talk I can crack a few jokes make a small connection give myself a moment to settle down but these girls are all business I look down at the paper I'm not going to panic or ask for more time or tell them I didn't really have a chance to go over it yet I'm going to remain calm as if I'm a professional,How does the narrator plan to handle the situation in the room?,A. By making small talk and jokes,B. By panicking and asking for more time,C. By admitting she didn't prepare,D. By remaining calm and professional,D. By remaining calm and professional,yes,14.64996875,,,,,,,,,,,,,0,0,0,0,,,,,,,,,,,,,,,,,,,,,,,,,,,,,,,,,,,,,,,,,,,,,,,,,,,,,254.73566579099997,258.15406825,0,,,0,,,0,,,1,3.405896499999983,3.4058994170000005,,,,,,,,,,,,,,,,,,,,,,,,,,,,p_1,001,2024-04-26_10h49.59.169,speech_rate,2023.2.3,None,2024-04-26 10h50.14.364240 -0700,
,Someday_65_condition-2x.wav,Someday__Someday__Maybe__Unabridged___File_032_of_116_0.wav,From the minute I walk into the wardrobe fitting in a trailer near mine I'm confused There are two giant rolling racks one full of tan trousers one stuffed with 30 or 40 identical blue shirts Oh Are there are there more people coming I ask a harried looking woman nearby She looks at me as though I've said something strange what oh the racks No those are all for you But aren't these all the same pants I say laughing a little,What does the narrator find confusing in the wardrobe fitting?,A. The lack of clothing options,B. The number of people there,C. The presence of a harried woman,D. The identical blue shirts and tan trousers,D. The identical blue shirts and tan trousers,no,14.04496875,,,,,,,,,,,,,0,1,1,1,,,,,,,,,258.161944166,,,,,,,,,,,,,,,260.14492,260.16054974966664,260.163363541,274.212080833,274.21317575,274.224371041,274.461719833,274.461719833,275.933421125,276.518601375,10,1.6845662080000352,1,[0.5942589580000117],[0.5942611660000239],,,,,,,,,,,,,,,276.51906854099997,279.612416166,0,,,0,,,0,,,1,3.083053457999995,3.083056291000048,,,,,,,,258.155166375,258.161944166,258.161944166,258.161944166,260.144703166,1,[1.988051750000011],[1.9880543329999796],,,,,,,,,,,,,p_1,001,2024-04-26_10h49.59.169,speech_rate,2023.2.3,None,2024-04-26 10h50.14.364240 -0700,
,Someday_123_condition-5x.wav,Someday__Someday__Maybe__Unabridged___File_054_of_116_3.wav,I'll admit it's sort of a sick relationship to have with someone who is hardly in your life Lisa doesn't come on until noon and I'm regularly sleeping until then now because there's no reason to get up any earlier Jane is treating it as a big deal as if there's something really wrong with me She calls me from work every day just to make sure I get up I'm worried about you You're depressed I'm fine My roommate Francis Farmer Jane says melodramatically I'm a sensitive creative type I'm going through something,Why does Jane call the narrator character every day?,A. To share gossip,B. To check if the main character is awake,C. To discuss their favorite TV shows,D. To offer emotional support,B. To check if the main character is awake,no,6.032,,,,,,,,,,,,,0,2,2,2,,,,,,,,,279.61986991599997,,,,,,,,,,,,,,,281.07900324999997,281.09498645766666,281.091155541,287.129033875,287.130373416,287.141685166,287.349957416,287.349957416,289.311121208,289.863116541,1.3083333333333333,2.1393779169999902,1,[0.5648564580000084],[0.564858791000006],,,,,,,,,,,,,,,289.863577791,296.278612041,0,,,0,,,0,,,1,6.405571958999985,6.405574666999996,,,,,,,,279.612964916,279.61986991599997,279.61986991599997,279.61986991599997,281.07879854099997,1,[1.4643267909999622],[1.4643295829999943],,,,,,,,,,,,,p_1,001,2024-04-26_10h49.59.169,speech_rate,2023.2.3,None,2024-04-26 10h50.14.364240 -0700,
,Someday_82_condition-5x.wav,Someday__Someday__Maybe__Unabridged___File_037_of_116_3.wav,The end Huh I say baffled The end is supposed to show that he's come to terms with who he is It's supposed to show he's been healed Huh I say again I know Fellini can be abstract Dan says eyes gleaming Watch it with me from the beginning sometime I will I smile back at him noticing for the first time the flecks of green in his brown eyes The room seems too dark and quiet suddenly,What color are Dan's eyes,A. Blue with green flecks,B. Deep brown,C. Brown with green flecks,D. Dark green with brown flecks,C. Brown with green flecks,no,6.242,,,,,,,,,,,,,0,3,3,3,,,,,,,,,296.284008958,,,,,,,,,,,,,,,297.15286333299997,297.16892674966664,297.164868125,303.413192916,303.414898041,303.437264083,303.650908625,303.650908625,305.42878187499997,305.98106525,1.166666666666667,1.9572149580000087,1,[0.5649911670000165],[0.5649940420000235],,,,,,,,,,,,,,,305.981564833,308.862718125,0,,,1,2.873181875,2.8731849579999675,0,,,0,,,,,,,,,,296.279107291,296.284008958,296.284008958,296.284008958,297.152677,1,[0.8731917499999895],[0.8731942499999832],,,,,,,,,,,,,p_1,001,2024-04-26_10h49.59.169,speech_rate,2023.2.3,None,2024-04-26 10h50.14.364240 -0700,
,Someday_43_condition-4x.wav,Someday__Someday__Maybe__Unabridged___File_023_of_116_1.wav,Then I'll call my dad and tell him I'm leaving New York You're doing the right thing honey he'll say Now you can get your teaching certificate I imagine what a relief it will be to have a real job I'll have a regular paycheck and a desk and a phone and a fax machine I'll have a computer which hopefully would come with someone to teach me how to use it And I'll have people to go out with sometimes after work for a drink at Bennigan's who'll me about their boyfriend or their kid or a project they're working on in their garage,What does the narrator think her father will say when she leaves New York?,A. That she is doing the right thing,B. That she should have tried harder,C. That she can go back to New York if she wants to,D. That she should have done it earlier,A. That she is doing the right thing,yes,7.505,,,,,,,,,,,,,0,4,4,4,0,0,0,0,0,0,0,0,332.153095291,,,,,,,,,,,,,,,309.480532875,309.49622162466665,309.495020458,316.997321166,317.0072695,317.018464291,317.221613791,317.221613791,319.402158958,319.992174625,2.05,2.3593720829999825,1,[0.5991634999999746],[0.5991659999999683],,,,,,,332.141687083,332.153095291,332.153095291,341.932606416,think boyfriend garage,1,[9.787591082999995],[9.787594082999988],,,,,,,,,,,,,,,,,,,,,,308.8632085,308.86974583299997,308.86974583299997,308.86974583299997,309.48034975,1,[0.6153454589999683],[0.6153479999999831],319.992666666,319.997689083,332.140840166,1,[12.147708916999989],[12.147711625],,,,,,,p_1,001,2024-04-26_10h49.59.169,speech_rate,2023.2.3,None,2024-04-26 10h50.14.364240 -0700,
,Someday_43_condition-4x.wav,Someday__Someday__Maybe__Unabridged___File_023_of_116_1.wav,Then I'll call my dad and tell him I'm leaving New York You're doing the right thing honey he'll say Now you can get your teaching certificate I imagine what a relief it will be to have a real job I'll have a regular paycheck and a desk and a phone and a fax machine I'll have a computer which hopefully would come with someone to teach me how to use it And I'll have people to go out with sometimes after work for a drink at Bennigan's who'll me about their boyfriend or their kid or a project they're working on in their garage,What does the narrator think her father will say when she leaves New York?,A. That she is doing the right thing,B. That she should have tried harder,C. That she can go back to New York if she wants to,D. That she should have done it earlier,A. That she is doing the right thing,yes,7.505,,,,,,,,,,,,,0,4,4,4,0,0,0,0,,,,,,,,,,,,,,,,,,,,,,,,,,,,,,,,,,,,,,,,,,,,,,,,,,,,,,,,,,,,,,,,,,,,,,,,,,,,,,,,,,,,,,,,,,p_1,001,2024-04-26_10h49.59.169,speech_rate,2023.2.3,None,2024-04-26 10h50.14.364240 -0700,
,Someday_43_condition-4x.wav,Someday__Someday__Maybe__Unabridged___File_023_of_116_1.wav,Then I'll call my dad and tell him I'm leaving New York You're doing the right thing honey he'll say Now you can get your teaching certificate I imagine what a relief it will be to have a real job I'll have a regular paycheck and a desk and a phone and a fax machine I'll have a computer which hopefully would come with someone to teach me how to use it And I'll have people to go out with sometimes after work for a drink at Bennigan's who'll me about their boyfriend or their kid or a project they're working on in their garage,What does the narrator think her father will say when she leaves New York?,A. That she is doing the right thing,B. That she should have tried harder,C. That she can go back to New York if she wants to,D. That she should have done it earlier,A. That she is doing the right thing,yes,7.505,,,,,,,,,,,,,0,4,4,4,,,,,,,,,,,,,,,,,,,,,,,,,,,,,,,,,,,,,,,,,,,,,,,,,,,,,341.9331645,348.409677,1,6.464090375000012,6.464092999999991,0,,,0,,,0,,,,,,,,,,,,,,,,,,,,,,,,,,,,,,p_1,001,2024-04-26_10h49.59.169,speech_rate,2023.2.3,None,2024-04-26 10h50.14.364240 -0700,
,Someday_80_condition-4x.wav,Someday__Someday__Maybe__Unabridged___File_037_of_116_1.wav,I'm happy someone's up happy not to come home to a darkened house after the long day I've had Very good he says looking impressed It's not that hard to recognize You must have rented it five times already this month I know he says smiling sheepishly I hope I'm not driving you guys crazy Jane was watching it for a while but gave up and went to sleep She said the last time she sat through the whole thing she dreamt she was eaten by her pillow It's almost over Want to watch the end with me,What did Jane see in her dream the last time she saw the movie?,A. That is was flying with a penguin,B. That she was sailing during a storm,C. That she was chased by a pirate,D. That she was eaten by her pillow,D. That she was eaten by her pillow,yes,7.3425,,,,,,,,,,,,,0,5,5,5,0,0,0,0,0,0,0,0,363.399324083,,,,,,,,,,,,,,,350.350088666,350.3656379166666,350.36314749999997,357.705565833,357.709377583,357.720605125,357.937702041,357.937702041,361.483516458,362.301467791,2.25,3.7380773339999678,1,[0.8274300420000031],[0.8274322080000047],,,,,,,363.387654625,363.399324083,363.399324083,381.426020541,happy end with me,1,[18.03516325000004],[18.03516620900001],,,,,,,,,,,,,,,,,,,,,,348.410255291,348.41783449999997,348.41783449999997,348.41783449999997,350.349819875,1,[1.9372075830000313],[1.9372101250000355],362.302021708,362.306695625,363.3868355,1,[1.0841467079999916],[1.0841523329999632],,,,,,,p_1,001,2024-04-26_10h49.59.169,speech_rate,2023.2.3,None,2024-04-26 10h50.14.364240 -0700,
,Someday_80_condition-4x.wav,Someday__Someday__Maybe__Unabridged___File_037_of_116_1.wav,I'm happy someone's up happy not to come home to a darkened house after the long day I've had Very good he says looking impressed It's not that hard to recognize You must have rented it five times already this month I know he says smiling sheepishly I hope I'm not driving you guys crazy Jane was watching it for a while but gave up and went to sleep She said the last time she sat through the whole thing she dreamt she was eaten by her pillow It's almost over Want to watch the end with me,What did Jane see in her dream the last time she saw the movie?,A. That is was flying with a penguin,B. That she was sailing during a storm,C. That she was chased by a pirate,D. That she was eaten by her pillow,D. That she was eaten by her pillow,yes,7.3425,,,,,,,,,,,,,0,5,5,5,0,0,0,0,,,,,,,,,,,,,,,,,,,,,,,,,,,,,,,,,,,,,,,,,,,,,,,,,,,,,,,,,,,,,,,,,,,,,,,,,,,,,,,,,,,,,,,,,,p_1,001,2024-04-26_10h49.59.169,speech_rate,2023.2.3,None,2024-04-26 10h50.14.364240 -0700,
,Someday_80_condition-4x.wav,Someday__Someday__Maybe__Unabridged___File_037_of_116_1.wav,I'm happy someone's up happy not to come home to a darkened house after the long day I've had Very good he says looking impressed It's not that hard to recognize You must have rented it five times already this month I know he says smiling sheepishly I hope I'm not driving you guys crazy Jane was watching it for a while but gave up and went to sleep She said the last time she sat through the whole thing she dreamt she was eaten by her pillow It's almost over Want to watch the end with me,What did Jane see in her dream the last time she saw the movie?,A. That is was flying with a penguin,B. That she was sailing during a storm,C. That she was chased by a pirate,D. That she was eaten by her pillow,D. That she was eaten by her pillow,yes,7.3425,,,,,,,,,,,,,0,5,5,5,,,,,,,,,,,,,,,,,,,,,,,,,,,,,,,,,,,,,,,,,,,,,,,,,,,,,381.426550791,387.285794458,0,,,1,5.8487497500000245,5.848752666999985,0,,,0,,,,,,,,,,,,,,,,,,,,,,,,,,,,,,p_1,001,2024-04-26_10h49.59.169,speech_rate,2023.2.3,None,2024-04-26 10h50.14.364240 -0700,
,Someday_50_condition.wav,Someday__Someday__Maybe__Unabridged___File_025_of_116_3.wav,It was a high concept half hour pilot he said Cutting edge was the exact phrase he used I believe He said it had taken some convincing to get me an audition since I had no television experience but they'd agreed to see me So I read the script and it didn't seem like a TV show to me but I'm used to reading plays where anything can happen in the world of someone's memory or whatever You were used to reading things that were abstract Leighton says Or imaginative not totally set in reality yes So I'm picturing what it could be if done correctly,What was the description given for the pilot in the story?,A. A low-budget independent film,B. A high-concept half-hour pilot,C. A traditional TV show format,D. A full-length feature film,B. A high-concept half-hour pilot,no,29.73,,,,,,,,,,,,,0,6,6,6,,,,,,,,,387.2949985,,,,,,,,,,,,,,,389.30241825,389.351231,389.3420595,419.069368458,419.087637041,419.10970375,419.358895083,419.358895083,432.542364916,434.83303291600004,10.0,15.191721208000047,1,[2.300226708000025],[2.3002289159999805],,,,,,,,,,,,,,,434.833503916,450.39521299999996,0,,,1,15.552725791999933,15.552728457999933,0,,,0,,,,,,,,,,387.28641225,387.2949985,387.2949985,387.2949985,389.302175375,1,[2.013185333000024],[2.013187958000003],,,,,,,,,,,,,p_1,001,2024-04-26_10h49.59.169,speech_rate,2023.2.3,None,2024-04-26 10h50.14.364240 -0700,
,Someday_88_condition-5x.wav,Someday__Someday__Maybe__Unabridged___File_039_of_116_1.wav,It always seems like something that I should like more than I do though some flavors taste like dirty bath water Or maybe I don't like it on principle because I know it's supposed to be healthy If it was filled with calories and fat would I like it more and why oh why am I thinking about this right now This is hardly the time to make a ruling on such a difficult subject What no scotch I say and I can immediately feel my face flush red I put my hand on my hip in what I hope is a jaunty manner in an attempt to cover for the fact that I'm trying too hard,Why does the narrator say she puts her hand on her hip,A. To hide that she is trying too hard,B. To look attractive,C. To rest her hand,D. To be serious,A. To hide that she is trying too hard,yes,5.764,,,,,,,,,,,,,0,7,7,7,0,0,0,0,0,0,0,0,461.14911025,,,,,,,,,,,,,,,451.872520083,451.8881355826666,451.883805916,457.645000958,457.656645041,457.66792245799996,457.87553495799995,457.87553495799995,459.627263833,460.284305125,1.1916666666666669,1.9344961250000097,1,[0.6665857089999463],[0.6665879170000153],,,,,,,461.138148791,461.14911025,461.14911025,466.446862166,why hit my head,1,[5.3056625000000395],[5.305666125000016],,,,,,,,,,,,,,,,,,,,,,450.39569016599995,450.40274370799995,450.40274370799995,450.40274370799995,451.872284375,1,[1.4748873329999697],[1.47489004199997],460.284827041,460.28954712499996,461.13753041599995,1,[0.8521455830000377],[0.8521479170000248],,,,,,,p_1,001,2024-04-26_10h49.59.169,speech_rate,2023.2.3,None,2024-04-26 10h50.14.364240 -0700,
,Someday_88_condition-5x.wav,Someday__Someday__Maybe__Unabridged___File_039_of_116_1.wav,It always seems like something that I should like more than I do though some flavors taste like dirty bath water Or maybe I don't like it on principle because I know it's supposed to be healthy If it was filled with calories and fat would I like it more and why oh why am I thinking about this right now This is hardly the time to make a ruling on such a difficult subject What no scotch I say and I can immediately feel my face flush red I put my hand on my hip in what I hope is a jaunty manner in an attempt to cover for the fact that I'm trying too hard,Why does the narrator say she puts her hand on her hip,A. To hide that she is trying too hard,B. To look attractive,C. To rest her hand,D. To be serious,A. To hide that she is trying too hard,yes,5.764,,,,,,,,,,,,,0,7,7,7,0,0,0,0,,,,,,,,,,,,,,,,,,,,,,,,,,,,,,,,,,,,,,,,,,,,,,,,,,,,,,,,,,,,,,,,,,,,,,,,,,,,,,,,,,,,,,,,,,p_1,001,2024-04-26_10h49.59.169,speech_rate,2023.2.3,None,2024-04-26 10h50.14.364240 -0700,
,Someday_88_condition-5x.wav,Someday__Someday__Maybe__Unabridged___File_039_of_116_1.wav,It always seems like something that I should like more than I do though some flavors taste like dirty bath water Or maybe I don't like it on principle because I know it's supposed to be healthy If it was filled with calories and fat would I like it more and why oh why am I thinking about this right now This is hardly the time to make a ruling on such a difficult subject What no scotch I say and I can immediately feel my face flush red I put my hand on my hip in what I hope is a jaunty manner in an attempt to cover for the fact that I'm trying too hard,Why does the narrator say she puts her hand on her hip,A. To hide that she is trying too hard,B. To look attractive,C. To rest her hand,D. To be serious,A. To hide that she is trying too hard,yes,5.764,,,,,,,,,,,,,0,7,7,7,,,,,,,,,,,,,,,,,,,,,,,,,,,,,,,,,,,,,,,,,,,,,,,,,,,,,466.44732574999995,469.13828695800004,1,2.6817023750001,2.6817052080000394,0,,,0,,,0,,,,,,,,,,,,,,,,,,,,,,,,,,,,,,p_1,001,2024-04-26_10h49.59.169,speech_rate,2023.2.3,None,2024-04-26 10h50.14.364240 -0700,
,Someday_28_condition-4x.wav,Someday__Someday__Maybe__Unabridged___File_017_of_116_0.wav,He has some sort of accent almost a drawl He's from the south somewhere Maybe he grew up on a farm in Texas or Georgia Maybe he had chores in the barn every day and helped his father harvest corn He still hasn't looked away from me He stands perfectly still not shifting at all I can feel myself rocking back and forth on my feet I try to stay steady like he does but it's impossible for me to do I really like your work in class I say ducking my head Oh yeah,How does the narrator feel about the person she encounters on the street?,A. She dislikes them,B. She is indifferent,C. She admires their work,D. She is terrified,C. She admires their work,yes,7.0375,,,,,,,,,,,,,0,8,8,8,0,0,0,0,0,0,0,0,482.93987424999995,,,,,,,,,,,,,,,470.589698125,470.60572712466666,470.60189858300004,477.64004737500005,477.64501950000005,477.65622958299997,477.86146349999996,477.86146349999996,481.207439375,482.184970083,2.2333333333333334,3.5264643330000354,1,[0.9872254999999086],[0.9872275000000172],,,,,,,482.92849691600003,482.93987424999995,482.93987424999995,495.21544179100005,working texas georgia he i say to myself ah,1,[12.283902333000015],[12.283905417000028],,,,,,,,,,,,,,,,,,,,,,469.13876283300004,469.14368154100003,469.14368154100003,469.14368154100003,470.5895155,1,[1.4503570829999717],[1.4503595829999085],482.185494958,482.190482833,482.92783512499994,1,[0.7419233749999421],[0.7419259579999107],,,,,,,p_1,001,2024-04-26_10h49.59.169,speech_rate,2023.2.3,None,2024-04-26 10h50.14.364240 -0700,
,Someday_28_condition-4x.wav,Someday__Someday__Maybe__Unabridged___File_017_of_116_0.wav,He has some sort of accent almost a drawl He's from the south somewhere Maybe he grew up on a farm in Texas or Georgia Maybe he had chores in the barn every day and helped his father harvest corn He still hasn't looked away from me He stands perfectly still not shifting at all I can feel myself rocking back and forth on my feet I try to stay steady like he does but it's impossible for me to do I really like your work in class I say ducking my head Oh yeah,How does the narrator feel about the person she encounters on the street?,A. She dislikes them,B. She is indifferent,C. She admires their work,D. She is terrified,C. She admires their work,yes,7.0375,,,,,,,,,,,,,0,8,8,8,0,0,0,0,,,,,,,,,,,,,,,,,,,,,,,,,,,,,,,,,,,,,,,,,,,,,,,,,,,,,,,,,,,,,,,,,,,,,,,,,,,,,,,,,,,,,,,,,,p_1,001,2024-04-26_10h49.59.169,speech_rate,2023.2.3,None,2024-04-26 10h50.14.364240 -0700,
,Someday_28_condition-4x.wav,Someday__Someday__Maybe__Unabridged___File_017_of_116_0.wav,He has some sort of accent almost a drawl He's from the south somewhere Maybe he grew up on a farm in Texas or Georgia Maybe he had chores in the barn every day and helped his father harvest corn He still hasn't looked away from me He stands perfectly still not shifting at all I can feel myself rocking back and forth on my feet I try to stay steady like he does but it's impossible for me to do I really like your work in class I say ducking my head Oh yeah,How does the narrator feel about the person she encounters on the street?,A. She dislikes them,B. She is indifferent,C. She admires their work,D. She is terrified,C. She admires their work,yes,7.0375,,,,,,,,,,,,,0,8,8,8,,,,,,,,,,,,,,,,,,,,,,,,,,,,,,,,,,,,,,,,,,,,,,,,,,,,,495.21589879100003,498.358317375,0,,,1,3.1317590419999988,3.1317617919999066,0,,,0,,,,,,,,,,,,,,,,,,,,,,,,,,,,,,p_1,001,2024-04-26_10h49.59.169,speech_rate,2023.2.3,None,2024-04-26 10h50.14.364240 -0700,
,Someday_101_condition-2x.wav,Someday__Someday__Maybe__Unabridged___File_044_of_116_3.wav,Okay great I say too forcefully So should I do it into the camera or I'm looking around vacantly not sure where to focus somehow not finding where the lens is Ah there's no camera here today since there's no scene exactly Tell you what why don't you just do it for Arthur here he says pointing to a painfully thin man with red hair and freckles to his left who looks not exactly happy to have been chosen as my target Okay great,Why won't the narrator have to perform in front of a camera during the audition?,A. Because there is no camera available,B. Because the scene doesn't require it,C. Because Arthur will perform it instead,D. Because the narrator refused to do it,B. Because the scene doesn't require it,yes,14.87,,,,,,,,,,,,,0,9,9,9,0,0,0,0,0,0,0,0,519.4249784579999,,,,,,,,,,,,,,,499.83081975,499.84646724966666,499.851390458,514.7139869160001,514.7265955,514.7485194159999,514.973960625,514.973960625,517.573744,518.3103140000001,10,2.8014369999999644,1,[0.7451729999999088],[0.7451758749999726],,,,,,,519.4132179579999,519.4249784579999,519.4249784579999,549.410876208,confused because no camera. just do it for arthur who is uncomfortable to have been chosen as the audience member he has red hair,0,,,,,,,,,,,,,,,,,,,,,,,,498.358904375,498.366940791,498.366940791,498.366940791,499.83063862499995,1,[1.4695994999999584],[1.4696020830000407],518.311016333,518.316161916,519.412421083,1,[1.1007967499999722],[1.1008074999999735],549.4320922909999,549.4320922909999,,,,,p_1,001,2024-04-26_10h49.59.169,speech_rate,2023.2.3,None,2024-04-26 10h50.14.364240 -0700,
,Someday_101_condition-2x.wav,Someday__Someday__Maybe__Unabridged___File_044_of_116_3.wav,Okay great I say too forcefully So should I do it into the camera or I'm looking around vacantly not sure where to focus somehow not finding where the lens is Ah there's no camera here today since there's no scene exactly Tell you what why don't you just do it for Arthur here he says pointing to a painfully thin man with red hair and freckles to his left who looks not exactly happy to have been chosen as my target Okay great,Why won't the narrator have to perform in front of a camera during the audition?,A. Because there is no camera available,B. Because the scene doesn't require it,C. Because Arthur will perform it instead,D. Because the narrator refused to do it,B. Because the scene doesn't require it,yes,14.87,,,,,,,,,,,,,0,9,9,9,0,0,0,0,,,,,,,,,,,,,,,,,,,,,,,,,,,,,,,,,,,,,,,,,,,,,,,,,,,,,,,,,,,,,,,,,,,,,,,,,,,,,,,,,,,,,,,,,,p_1,001,2024-04-26_10h49.59.169,speech_rate,2023.2.3,None,2024-04-26 10h50.14.364240 -0700,
,Someday_101_condition-2x.wav,Someday__Someday__Maybe__Unabridged___File_044_of_116_3.wav,Okay great I say too forcefully So should I do it into the camera or I'm looking around vacantly not sure where to focus somehow not finding where the lens is Ah there's no camera here today since there's no scene exactly Tell you what why don't you just do it for Arthur here he says pointing to a painfully thin man with red hair and freckles to his left who looks not exactly happy to have been chosen as my target Okay great,Why won't the narrator have to perform in front of a camera during the audition?,A. Because there is no camera available,B. Because the scene doesn't require it,C. Because Arthur will perform it instead,D. Because the narrator refused to do it,B. Because the scene doesn't require it,yes,14.87,,,,,,,,,,,,,0,9,9,9,,,,,,,,,,,,,,,,,,,,,,,,,,,,,,,,,,,,,,,,,,,,,,,,,,,,,549.4112725,558.0616554579999,1,8.63874979100001,8.638752582999928,0,,,0,,,0,,,,,,,,,,,,,,,,,,,,,,,,,,,,,,p_1,001,2024-04-26_10h49.59.169,speech_rate,2023.2.3,None,2024-04-26 10h50.14.364240 -0700,
,Someday_8_condition-2x.wav,Someday__Someday__Maybe__Unabridged___File_007_of_116_1.wav,And one accomplishment a year wasn't exactly what I had in mind Still wedged halfway beneath the bed it takes all my strength to push a barely used roller blade out of the way At this point I'm just sweeping my arm back and forth making the same movement under my bed as I would if making a snow angel only the accumulated junk is a lot harder to move I give up for a moment resting my cheek against the cool wooden floor with a sigh Do you have any idea how few actors make it people always say,What does the narrator push out of the way?,A. Roller blades,B. Snow angel drawings,C. Junk that's hard to move,D. Cool wooden floor,A. Roller blades,no,14.59,,,,,,,,,,,,,0,10,10,10,,,,,,,,,558.069595083,,,,,,,,,,,,,,,559.9268261249999,559.9590733333332,559.9490922079999,574.5454299999999,574.5517801660001,574.573560666,574.838992208,574.838992208,577.16126725,577.5813767499999,10,2.5597978749999584,1,[0.4330494590000171],[0.43305195899995397],,,,,,,,,,,,,,,577.5818582500001,582.7979035830001,1,5.207849166000074,5.2078514160000395,0,,,0,,,0,,,,,,,,,,558.062199,558.069595083,558.069595083,558.069595083,559.9266397910001,1,[1.8624551249999968],[1.8624579579999363],,,,,,,,,,,,,p_1,001,2024-04-26_10h49.59.169,speech_rate,2023.2.3,None,2024-04-26 10h50.14.364240 -0700,
,Someday_41_condition.wav,Someday__Someday__Maybe__Unabridged___File_022_of_116_0.wav,And even if I give it more thought and someday decide I'm very definitely against wearing the same animal that brings Easter baskets to little children it's not really like me to judge someone else for her rabbit related choices Penelope's face falls and she looks down at her jacket You know she says it is real I wasn't sure about it myself but it was my mother's and so I figured it's vintage She trails off and absently runs her fingers over the silky white collar,What does Penelope say about her rabbit fur jacket?,A. It's fake,B. It's vintage,C. It's for Easter,D. It's her sister's,B. It's vintage,yes,28.77003125,,,,,,,,,,,,,0,11,11,11,0,0,0,0,0,0,0,0,623.9326195829999,,,,,,,,,,,,,,,584.5528126659999,584.5850673333332,584.583427666,613.3476350000001,613.355682916,613.3768043330001,613.5842870829999,613.5842870829999,618.9198537499999,619.931064416,10,5.518623666999929,1,[1.0206379170000446],[1.020640125],,,,,,,623.920860041,623.9326195829999,623.9326195829999,653.9171631659999,speaker doesnt want to wear rabbit fur (easter bunny reference) and is talking to penelope about it who is wearing their mothers bunny j,0,,,,,,,,,,,,,,,,,,,,,,,,582.798409125,582.8112115409999,582.8112115409999,582.8112115409999,584.552613541,1,[1.7524914580000086],[1.7524942500000407],619.931557291,619.9362791660001,623.919515,1,[3.9865187499999593],[3.9865281669999604],653.937413875,653.937413875,,,,,p_1,001,2024-04-26_10h49.59.169,speech_rate,2023.2.3,None,2024-04-26 10h50.14.364240 -0700,
,Someday_41_condition.wav,Someday__Someday__Maybe__Unabridged___File_022_of_116_0.wav,And even if I give it more thought and someday decide I'm very definitely against wearing the same animal that brings Easter baskets to little children it's not really like me to judge someone else for her rabbit related choices Penelope's face falls and she looks down at her jacket You know she says it is real I wasn't sure about it myself but it was my mother's and so I figured it's vintage She trails off and absently runs her fingers over the silky white collar,What does Penelope say about her rabbit fur jacket?,A. It's fake,B. It's vintage,C. It's for Easter,D. It's her sister's,B. It's vintage,yes,28.77003125,,,,,,,,,,,,,0,11,11,11,0,0,0,0,,,,,,,,,,,,,,,,,,,,,,,,,,,,,,,,,,,,,,,,,,,,,,,,,,,,,,,,,,,,,,,,,,,,,,,,,,,,,,,,,,,,,,,,,,p_1,001,2024-04-26_10h49.59.169,speech_rate,2023.2.3,None,2024-04-26 10h50.14.364240 -0700,
,Someday_41_condition.wav,Someday__Someday__Maybe__Unabridged___File_022_of_116_0.wav,And even if I give it more thought and someday decide I'm very definitely against wearing the same animal that brings Easter baskets to little children it's not really like me to judge someone else for her rabbit related choices Penelope's face falls and she looks down at her jacket You know she says it is real I wasn't sure about it myself but it was my mother's and so I figured it's vintage She trails off and absently runs her fingers over the silky white collar,What does Penelope say about her rabbit fur jacket?,A. It's fake,B. It's vintage,C. It's for Easter,D. It's her sister's,B. It's vintage,yes,28.77003125,,,,,,,,,,,,,0,11,11,11,,,,,,,,,,,,,,,,,,,,,,,,,,,,,,,,,,,,,,,,,,,,,,,,,,,,,653.9176203330001,659.2347998329999,0,,,1,5.3068187919999446,5.306821624999998,0,,,0,,,,,,,,,,,,,,,,,,,,,,,,,,,,,,p_1,001,2024-04-26_10h49.59.169,speech_rate,2023.2.3,None,2024-04-26 10h50.14.364240 -0700,
,Someday_112_condition-4x.wav,Someday__Someday__Maybe__Unabridged___File_049_of_116_0.wav,It was all a blur of papers coming off the roll from the fax machine and time spent rushing from one building in Manhattan to another But then we ran out of fax paper and I kept forgetting to get a new roll so I had to cold read a few times and I'll admit there were a few days when I showed up at an audition not really prepared And then there was the big audition I had prepared for a small part in a Broadway play directed by Mike Stanley But I was so nervous to meet him that I left out an entire page of the scene and he didn't ask me to read it again,What happened during the narrator's audition for a Broadway play directed by Mike Stanley?,A. The narrator performed exceptionally well,B. The narrator forgot to bring her audition materials,C. The narrator left out an entire page of the scene,D. The narrator received a callback for another audition,C. The narrator left out an entire page of the scene,no,7.57,,,,,,,,,,,,,0,12,12,12,,,,,,,,,659.243263333,,,,,,,,,,,,,,,661.338051166,661.3507528746666,661.351649708,668.9153656660001,668.9227834999999,668.934006,669.196473708,669.196473708,670.932844708,673.762904166,5.1,4.380752417000053,1,[2.843145832999994],[2.8431480409999494],,,,,,,,,,,,,,,673.7633868749999,684.0196174160001,1,10.244332583999949,10.24433533399997,0,,,0,,,0,,,,,,,,,,659.2354385000001,659.243263333,659.243263333,659.243263333,661.337783833,1,[2.1003489580000405],[2.1003637909999497],,,,,,,,,,,,,p_1,001,2024-04-26_10h49.59.169,speech_rate,2023.2.3,None,2024-04-26 10h50.14.364240 -0700,
,Someday_113_condition-2x.wav,Someday__Someday__Maybe__Unabridged___File_050_of_116_0.wav,She lives I think I need a manager Why do you need a manager I thought you just got an agent I did but they aren't getting me any auditions If you have no auditions what's there to manage A manager would help me get auditions How could a manager do that when the agents can't Well managers have fewer people so they can focus just on you And why do you have an agent at all Why not just have a manager You have to have an agent They're the only ones allowed to negotiate contracts Agents are franchised managers aren't,Why does the narrator want to get a manager?,A. To help negotiate contracts,B. To get auditions,C. Because agents are expensive,D. To manage the finances,B. To get auditions,no,14.00996875,,,,,,,,,,,,,0,13,13,13,,,,,,,,,684.026555875,,,,,,,,,,,,,,,685.385836125,685.4013232916666,685.406190125,699.4191759580001,699.4222419160001,699.4334615,699.6373168329999,699.6373168329999,700.6574075829999,701.15842075,10,1.1992930830000432,1,[0.510514124999986],[0.5105164579999837],,,,,,,,,,,,,,,701.158836625,710.3228677499999,0,,,1,9.156233500000099,9.156236165999985,0,,,0,,,,,,,,,,684.0202033749999,684.026555875,684.026555875,684.026555875,685.3855825,1,[1.364883582999937],[1.3648864999998978],,,,,,,,,,,,,p_1,001,2024-04-26_10h49.59.169,speech_rate,2023.2.3,None,2024-04-26 10h50.14.364240 -0700,
,Someday_104_condition-3x.wav,Someday__Someday__Maybe__Unabridged___File_047_of_116_0.wav,Do you feel good about it I'm not sure I think so The audience laughed Lots of people said I did well But I have no idea who any of them were or if they were the ones I needed to impress But the laughing thing was getting such a positive reaction from the audience The writer decided to give me a line Jane's eyes go wide No way I know I got really excited too Which is so dumb when you think about it I've done whole plays in summer stock and all those scenes in class,What positive outcome does the narrator mention regarding her audition?,A. The writer decided to give her a line,B. Jane was impressed with her performance,C. She received a standing ovation,D. She secured a lead role in the play,A. The writer decided to give her a line,no,10.96125,,,,,,,,,,,,,0,14,14,14,,,,,,,,,710.336121375,,,,,,,,,,,,,,,711.010034791,711.0260468326667,711.0255722909999,721.9870261660001,721.989011291,722.000240458,722.206618791,722.206618791,723.655029708,724.1885132909999,8.366666666666667,1.6292779999999993,1,[0.5429796670000542],[0.5429822920000333],,,,,,,,,,,,,,,724.1890115409999,738.881723791,0,,,0,,,1,14.682709334000037,14.68271229200002,0,,,,,,,,,,710.3234459580001,710.336121375,710.336121375,710.336121375,711.009853625,1,[0.6847709580000583],[0.6847735000000057],,,,,,,,,,,,,p_1,001,2024-04-26_10h49.59.169,speech_rate,2023.2.3,None,2024-04-26 10h50.14.364240 -0700,
,Someday_31_condition.wav,Someday__Someday__Maybe__Unabridged___File_017_of_116_3.wav,Yeah and then I have stuff you know with all of my agents too I say hands flapping vaguely in the air Very cool Who are you with I realize I'm too exhausted to continue I'm with it's all in my head ink You're what Oh I get it You're kidding Ha Yes I'm kidding I'm currently between agents currently and formerly between them,What is the narrator's current agent situation?,A. She has one agent,B. She has no agents,C. She has more than two agents,D. She has two agents,B. She has no agents,yes,26.97003125,,,,,,,,,,,,,0,15,15,15,0,0,0,0,0,0,0,0,773.3561036250001,,,,,,,,,,,,,,,740.4719391250001,740.5044172493333,740.5038577079999,767.4729218330001,767.476669833,767.498071625,767.7069844580001,767.7069844580001,769.990848291,770.5681385830001,10,2.4681699999999864,1,[0.5861771660000841],[0.5861795410000923],,,,,,,773.344377958,773.3561036250001,773.3561036250001,802.909256958,"person is talking about how they don't currently have an agent, they are exhausted, they make a dry sarcastic joke about its all in my head inc",1,[29.561552207999966],[29.561555374999898],,,,,,,,,,,,,,,,,,,,,,738.8822842080001,738.890268291,738.890268291,738.890268291,740.4717379159999,1,[1.5875694999999723],[1.5875720000000229],770.568666416,770.5738719579999,773.3435724159999,1,[2.773988583000005],[2.7739941249999447],,,,,,,p_1,001,2024-04-26_10h49.59.169,speech_rate,2023.2.3,None,2024-04-26 10h50.14.364240 -0700,
,Someday_31_condition.wav,Someday__Someday__Maybe__Unabridged___File_017_of_116_3.wav,Yeah and then I have stuff you know with all of my agents too I say hands flapping vaguely in the air Very cool Who are you with I realize I'm too exhausted to continue I'm with it's all in my head ink You're what Oh I get it You're kidding Ha Yes I'm kidding I'm currently between agents currently and formerly between them,What is the narrator's current agent situation?,A. She has one agent,B. She has no agents,C. She has more than two agents,D. She has two agents,B. She has no agents,yes,26.97003125,,,,,,,,,,,,,0,15,15,15,0,0,0,0,,,,,,,,,,,,,,,,,,,,,,,,,,,,,,,,,,,,,,,,,,,,,,,,,,,,,,,,,,,,,,,,,,,,,,,,,,,,,,,,,,,,,,,,,,p_1,001,2024-04-26_10h49.59.169,speech_rate,2023.2.3,None,2024-04-26 10h50.14.364240 -0700,
,Someday_31_condition.wav,Someday__Someday__Maybe__Unabridged___File_017_of_116_3.wav,Yeah and then I have stuff you know with all of my agents too I say hands flapping vaguely in the air Very cool Who are you with I realize I'm too exhausted to continue I'm with it's all in my head ink You're what Oh I get it You're kidding Ha Yes I'm kidding I'm currently between agents currently and formerly between them,What is the narrator's current agent situation?,A. She has one agent,B. She has no agents,C. She has more than two agents,D. She has two agents,B. She has no agents,yes,26.97003125,,,,,,,,,,,,,0,15,15,15,,,,,,,,,,,,,,,,,,,,,,,,,,,,,,,,,,,,,,,,,,,,,,,,,,,,,802.9097515829999,808.6023445000001,0,,,1,5.683753833999958,5.683756625000001,0,,,0,,,,,,,,,,,,,,,,,,,,,,,,,,,,,,p_1,001,2024-04-26_10h49.59.169,speech_rate,2023.2.3,None,2024-04-26 10h50.14.364240 -0700,
,Someday_54_condition.wav,Someday__Someday__Maybe__Unabridged___File_027_of_116_2.wav,It's made of navy blue quilted leather and has a gold chain instead of a strap and she told me once it was a college graduation gift from her parents She usually leaves it out on the table and she always lays one of our cloth napkins underneath it I'm fascinated by the bag because to my knowledge it's the single most expensive item I've ever seen up close but the napkin thing always bothers me as if she's implying our housekeeping isn't quite up to her standards Still Everett's perfectly nice and I want her to feel welcome here,What is distinctive about Everett's Chanel bag?,A. It's bright red,B. It's made of velvet,C. It has a gold chain strap,D. It's a gift from the narrator,C. It has a gold chain strap,no,28.95996875,,,,,,,,,,,,,0,16,16,16,,,,,,,,,808.6105110829999,,,,,,,,,,,,,,,810.6595452910001,810.6916852493332,810.68949825,839.6439082500001,839.66250425,839.684063916,839.940378083,839.940378083,842.228064791,842.967106583,10.0,2.519214541999986,1,[0.74868062500002],[0.7486827920000678],,,,,,,,,,,,,,,842.967564458,845.8263697079999,0,,,0,,,1,2.8508690419999994,2.850871624999968,0,,,,,,,,,,808.602962208,808.6105110829999,808.6105110829999,808.6105110829999,810.659285833,1,[2.054493791000027],[2.0544963329999746],,,,,,,,,,,,,p_1,001,2024-04-26_10h49.59.169,speech_rate,2023.2.3,None,2024-04-26 10h50.14.364240 -0700,
,Someday_115_condition.wav,Someday__Someday__Maybe__Unabridged___File_051_of_116_2.wav,All those people can't just be walking around starving and happening to look great all the time They must know something that the rest of us don't Or worse maybe there isn't a trick Maybe they are walking around hungry all the time Maybe that's the difference between being successful or unsuccessful Maybe I'm too weak I'm too concerned with feeling good to be willing to feel as bad as I should to be successful Why would feeling good be bad People spend their lives trying to feel good You're not supposed to walk around miserable all the time,What is the narrator's concern about the successful people she sees?,A. They are always happy,B. They are always starving themselves,C. They know a secret for good acting,D. They are too weak to succeed,B. They are always starving themselves,yes,29.49,,,,,,,,,,,,,0,17,17,17,0,0,0,0,0,0,0,0,887.4767508330001,,,,,,,,,,,,,,,851.0957033750001,851.1274093743334,851.126781916,880.6296776659999,880.6324105000001,880.653781875,880.866535958,880.866535958,882.8723371250001,883.574232666,10,2.1914741669999103,1,[0.710951375000036],[0.7109537080000337],,,,,,,887.4652665000001,887.4767508330001,887.4767508330001,917.460856208,people can't be starving and looking great they must know something or be doing something different so they can be hungry and walking around being successful. maybe i need to feel b,0,,,,,,,,,,,,,,,,,,,,,,,,845.826826541,845.832890833,845.832890833,845.832890833,851.0953957910001,1,[5.266793290999999],[5.266796250000084],883.574758583,883.5798165829999,887.464413333,1,[3.888816625000004],[3.888819249999983],917.481239833,917.481239833,,,,,p_1,001,2024-04-26_10h49.59.169,speech_rate,2023.2.3,None,2024-04-26 10h50.14.364240 -0700,
,Someday_115_condition.wav,Someday__Someday__Maybe__Unabridged___File_051_of_116_2.wav,All those people can't just be walking around starving and happening to look great all the time They must know something that the rest of us don't Or worse maybe there isn't a trick Maybe they are walking around hungry all the time Maybe that's the difference between being successful or unsuccessful Maybe I'm too weak I'm too concerned with feeling good to be willing to feel as bad as I should to be successful Why would feeling good be bad People spend their lives trying to feel good You're not supposed to walk around miserable all the time,What is the narrator's concern about the successful people she sees?,A. They are always happy,B. They are always starving themselves,C. They know a secret for good acting,D. They are too weak to succeed,B. They are always starving themselves,yes,29.49,,,,,,,,,,,,,0,17,17,17,0,0,0,0,,,,,,,,,,,,,,,,,,,,,,,,,,,,,,,,,,,,,,,,,,,,,,,,,,,,,,,,,,,,,,,,,,,,,,,,,,,,,,,,,,,,,,,,,,p_1,001,2024-04-26_10h49.59.169,speech_rate,2023.2.3,None,2024-04-26 10h50.14.364240 -0700,
,Someday_115_condition.wav,Someday__Someday__Maybe__Unabridged___File_051_of_116_2.wav,All those people can't just be walking around starving and happening to look great all the time They must know something that the rest of us don't Or worse maybe there isn't a trick Maybe they are walking around hungry all the time Maybe that's the difference between being successful or unsuccessful Maybe I'm too weak I'm too concerned with feeling good to be willing to feel as bad as I should to be successful Why would feeling good be bad People spend their lives trying to feel good You're not supposed to walk around miserable all the time,What is the narrator's concern about the successful people she sees?,A. They are always happy,B. They are always starving themselves,C. They know a secret for good acting,D. They are too weak to succeed,B. They are always starving themselves,yes,29.49,,,,,,,,,,,,,0,17,17,17,,,,,,,,,,,,,,,,,,,,,,,,,,,,,,,,,,,,,,,,,,,,,,,,,,,,,917.461341291,922.40560725,0,,,1,4.934323749999976,4.9343262500000264,0,,,0,,,,,,,,,,,,,,,,,,,,,,,,,,,,,,p_1,001,2024-04-26_10h49.59.169,speech_rate,2023.2.3,None,2024-04-26 10h50.14.364240 -0700,
,Someday_84_condition-4x.wav,Someday__Someday__Maybe__Unabridged___File_038_of_116_0.wav,The offices of absolute artists are on the 32nd floor of a sleek glass high rise building on 56th Street near Fifth Avenue in the middle of countless stores and apartments I could never afford I come to this part of town only once in a while to go to Central Park although I like our park in Brooklyn just as much The streets are wider here and the buildings are much taller than downtown and lots of people are wearing suits and carrying briefcases and crossing the street dangerously in the middle of the block,Where is Absolute Artists' office located?,A. In Brooklyn,B. On Fifth Avenue,C. By Central Park,D. On the 32nd floor of a high-rise,D. On the 32nd floor of a high-rise,no,7.315,,,,,,,,,,,,,0,18,18,18,,,,,,,,,922.4137572080001,,,,,,,,,,,,,,,924.1660919159999,924.1815639576666,924.180260416,931.4989961250001,931.501340583,931.512579708,931.7757744999999,931.7757744999999,932.9755177500001,933.4666150830001,5.7666666666666675,1.4358511249999992,1,[0.500004540999953],[0.5000069579999717],,,,,,,,,,,,,,,933.4671141250001,938.3897529159999,0,,,0,,,0,,,1,4.912919166999927,4.91292220899993,,,,,,,,922.406069958,922.4137572080001,922.4137572080001,922.4137572080001,924.1658579580001,1,[1.7592870419999826],[1.759289707999983],,,,,,,,,,,,,p_1,001,2024-04-26_10h49.59.169,speech_rate,2023.2.3,None,2024-04-26 10h50.14.364240 -0700,
,Someday_114_condition-2x.wav,Someday__Someday__Maybe__Unabridged___File_051_of_116_0.wav,You know in general for show business I think that's why I'm not getting any calls from the agency What do you think is the right way to look You know more like these girls on still nursing I gesture toward the television where a buxom blonde in a short skirt and open doctor's coat is struggling to reattach the IV of an elderly male patient by straddling his hospital bed accidentally smothering him with her cleavage The studio audience screams with laughter,What TV show does the narrator reference in their conversation about appearances?,A. A cooking show,B. A crime show,C. A sitcom called "Still Nursing",D. A reality show,C. A sitcom called "Still Nursing",yes,14.34,,,,,,,,,,,,,0,19,19,19,0,0,0,0,0,0,0,0,959.453837625,,,,,,,,,,,,,,,939.966356958,939.9821180826666,939.9855681250001,954.333750125,954.3358471249999,954.347076583,954.5532530409998,954.5532530409998,956.9826344579999,957.456492,10.0,2.6078756250001334,1,[0.4867196249999779],[0.4867225830000734],,,,,,,959.443014041,959.453837625,959.453837625,989.4426243749999,talking about being a good actress in terms of appearance -- speaker says im not going to be a good actress b/c i am not going to do th,0,,,,,,,,,,,,,,,,,,,,,,,,938.390232166,938.397188833,938.397188833,938.397188833,939.966015125,1,[1.574357125000006],[1.5743595829999322],957.4570208749999,957.4660880829999,959.4422971659999,1,[1.9846160839999811],[1.9846186669999497],989.463071208,989.463071208,,,,,p_1,001,2024-04-26_10h49.59.169,speech_rate,2023.2.3,None,2024-04-26 10h50.14.364240 -0700,
,Someday_114_condition-2x.wav,Someday__Someday__Maybe__Unabridged___File_051_of_116_0.wav,You know in general for show business I think that's why I'm not getting any calls from the agency What do you think is the right way to look You know more like these girls on still nursing I gesture toward the television where a buxom blonde in a short skirt and open doctor's coat is struggling to reattach the IV of an elderly male patient by straddling his hospital bed accidentally smothering him with her cleavage The studio audience screams with laughter,What TV show does the narrator reference in their conversation about appearances?,A. A cooking show,B. A crime show,C. A sitcom called "Still Nursing",D. A reality show,C. A sitcom called "Still Nursing",yes,14.34,,,,,,,,,,,,,0,19,19,19,0,0,0,0,,,,,,,,,,,,,,,,,,,,,,,,,,,,,,,,,,,,,,,,,,,,,,,,,,,,,,,,,,,,,,,,,,,,,,,,,,,,,,,,,,,,,,,,,,p_1,001,2024-04-26_10h49.59.169,speech_rate,2023.2.3,None,2024-04-26 10h50.14.364240 -0700,
,Someday_114_condition-2x.wav,Someday__Someday__Maybe__Unabridged___File_051_of_116_0.wav,You know in general for show business I think that's why I'm not getting any calls from the agency What do you think is the right way to look You know more like these girls on still nursing I gesture toward the television where a buxom blonde in a short skirt and open doctor's coat is struggling to reattach the IV of an elderly male patient by straddling his hospital bed accidentally smothering him with her cleavage The studio audience screams with laughter,What TV show does the narrator reference in their conversation about appearances?,A. A cooking show,B. A crime show,C. A sitcom called "Still Nursing",D. A reality show,C. A sitcom called "Still Nursing",yes,14.34,,,,,,,,,,,,,0,19,19,19,,,,,,,,,,,,,,,,,,,,,,,,,,,,,,,,,,,,,,,,,,,,,,,,,,,,,989.4431112079999,993.363155625,0,,,0,,,1,3.909661124999957,3.9096649169998727,0,,,,,,,,,,,,,,,,,,,,,,,,,,,,,,p_1,001,2024-04-26_10h49.59.169,speech_rate,2023.2.3,None,2024-04-26 10h50.14.364240 -0700,
,Someday_58_condition-4x.wav,Someday__Someday__Maybe__Unabridged___File_028_of_116_0.wav,Her profile is sharp her whole body a series of angles that have somehow Improbably folded themselves on their hinges into the soft chair There's something so regal and linear about her I can't imagine her ever collapsing into giggles or crying hysterically She's taking her time to consider what to say next in a way that suggests she's used to people waiting for her I wonder what that's like to never worry about filling the silence Her eyes eventually float back to me,How does the narrator describe the woman's profile?,A. Sharp,B. Round,C. Regal,D. Hysterical,A. Sharp,no,7.32,,,,,,,,,,,,,0,20,20,20,,,,,,,,,993.3713527079999,,,,,,,,,,,,,,,995.503107083,995.5190113326667,995.5156929999998,1002.8365652909999,1002.8418865409999,1002.852101875,1003.1135399999998,1003.1135399999998,1005.208665958,1006.6874089159999,5.066666666666666,2.3317221250001694,1,[1.4885895419999997],[1.4885917920000793],,,,,,,,,,,,,,,1006.6878883749998,1009.10421675,0,,,0,,,0,,,1,2.409490042000016,2.4094930419998946,,,,,,,,993.363744625,993.3713527079999,993.3713527079999,993.3713527079999,995.502911458,1,[2.137294125000153],[2.1372967500001323],,,,,,,,,,,,,p_1,001,2024-04-26_10h49.59.169,speech_rate,2023.2.3,None,2024-04-26 10h50.14.364240 -0700,
,Someday_3_condition.wav,Someday__Someday__Maybe__Unabridged___File_005_of_116_1.wav,I suppose I did but I'm still too groggy to focus on the details Normally I would have asked our other roommate my best friend Jane but she's been working nights as a PA on that new Russell Blakely movie Since Dan moved into the bedroom downstairs a few months ago I haven't noticed much about him except how unnecessarily tall he is how many hours he spends writing at the computer and the intense fear he seems to have about coming upon either of us when we're not decent Dan come in You're decent,What is the main reason the narrator doesn't ask their roommate Jane for help?,A. Jane is too busy working,B. Jane is not a good friend,C. The narrator doesn't trust Jane,D. The narrator prefers not to talk to anyone,A. Jane is too busy working,no,29.62,,,,,,,,,,,,,0,21,21,21,,,,,,,,,1009.112429041,,,,,,,,,,,,,,,1010.520919375,1010.5530795413333,1010.552352833,1040.1718732909999,1040.175887708,1040.1973537909998,1040.4054972499998,1040.4054972499998,1042.0274467079998,1042.8891193329998,10,1.8056012500001088,1,[0.8710935839999365],[0.8710957920000055],,,,,,,,,,,,,,,1042.889543416,1048.7902871659999,1,5.891836875000081,5.8918394580000495,0,,,0,,,0,,,,,,,,,,1009.1048271249999,1009.112429041,1009.112429041,1009.112429041,1010.5207022909999,1,[1.4141554170000745],[1.414158167000096],,,,,,,,,,,,,p_1,001,2024-04-26_10h49.59.169,speech_rate,2023.2.3,None,2024-04-26 10h50.14.364240 -0700,
,Someday_100_condition-4x.wav,Someday__Someday__Maybe__Unabridged___File_044_of_116_2.wav,Who else laughs funny It seems all I can think of are people who have completely normal ways of laughing or Fran Drescher from The Nanny but that's her laugh It's only funny the way she does it Or is that what they want Someone who can copy someone else's already funny laugh rather than trying to invent a better one Now all I can think of is the laugh from The Nanny Maybe that's what I'll do then I can't think of anything else I'll just try to do a really good version of the laugh from The Nanny The girls are coming and going out of the audition room with incredible speed,What famous laugh does the narrator consider using for the audition?,A. A laugh from a family member,B. A laugh from a friend,C. The laugh from The Nanny,D. A unique and invented laugh,C. The laugh from The Nanny,yes,7.3825,,,,,,,,,,,,,0,22,22,22,0,0,0,0,0,0,0,0,1060.702060583,,,,,,,,,,,,,,,1050.4737788749999,1050.4887919166665,1050.4874057079999,1057.8729026659998,1057.875077083,1057.8862910829998,1058.09157325,1058.09157325,1059.371642458,1059.8906238329998,3.6083333333333334,1.4567328329999327,1,[0.5318692079999892],[0.5318719160000001],,,,,,,1060.691013958,1060.702060583,1060.702060583,1068.074691708,laughing nanny girls come in ,1,[7.380501999999979],[7.3805049160000635],,,,,,,,,,,,,,,,,,,,,,1048.7908559579998,1048.798335125,1048.798335125,1048.798335125,1050.473497708,1,[1.6805193340001097],[1.6805221669999355],1059.891176833,1059.9051936659998,1060.690260458,1,[0.7985318339999594],[0.7985344999999597],,,,,,,p_1,001,2024-04-26_10h49.59.169,speech_rate,2023.2.3,None,2024-04-26 10h50.14.364240 -0700,
,Someday_100_condition-4x.wav,Someday__Someday__Maybe__Unabridged___File_044_of_116_2.wav,Who else laughs funny It seems all I can think of are people who have completely normal ways of laughing or Fran Drescher from The Nanny but that's her laugh It's only funny the way she does it Or is that what they want Someone who can copy someone else's already funny laugh rather than trying to invent a better one Now all I can think of is the laugh from The Nanny Maybe that's what I'll do then I can't think of anything else I'll just try to do a really good version of the laugh from The Nanny The girls are coming and going out of the audition room with incredible speed,What famous laugh does the narrator consider using for the audition?,A. A laugh from a family member,B. A laugh from a friend,C. The laugh from The Nanny,D. A unique and invented laugh,C. The laugh from The Nanny,yes,7.3825,,,,,,,,,,,,,0,22,22,22,0,0,0,0,,,,,,,,,,,,,,,,,,,,,,,,,,,,,,,,,,,,,,,,,,,,,,,,,,,,,,,,,,,,,,,,,,,,,,,,,,,,,,,,,,,,,,,,,,p_1,001,2024-04-26_10h49.59.169,speech_rate,2023.2.3,None,2024-04-26 10h50.14.364240 -0700,
,Someday_100_condition-4x.wav,Someday__Someday__Maybe__Unabridged___File_044_of_116_2.wav,Who else laughs funny It seems all I can think of are people who have completely normal ways of laughing or Fran Drescher from The Nanny but that's her laugh It's only funny the way she does it Or is that what they want Someone who can copy someone else's already funny laugh rather than trying to invent a better one Now all I can think of is the laugh from The Nanny Maybe that's what I'll do then I can't think of anything else I'll just try to do a really good version of the laugh from The Nanny The girls are coming and going out of the audition room with incredible speed,What famous laugh does the narrator consider using for the audition?,A. A laugh from a family member,B. A laugh from a friend,C. The laugh from The Nanny,D. A unique and invented laugh,C. The laugh from The Nanny,yes,7.3825,,,,,,,,,,,,,0,22,22,22,,,,,,,,,,,,,,,,,,,,,,,,,,,,,,,,,,,,,,,,,,,,,,,,,,,,,1068.075148041,1071.6744133329998,0,,,0,,,1,3.589505041000166,3.589507874999981,0,,,,,,,,,,,,,,,,,,,,,,,,,,,,,,p_1,001,2024-04-26_10h49.59.169,speech_rate,2023.2.3,None,2024-04-26 10h50.14.364240 -0700,
,Someday_18_condition-3x.wav,Someday__Someday__Maybe__Unabridged___File_011_of_116_1.wav,The D train between Brooklyn and Manhattan is one of my favorite lines because at one the train emerges from underground and goes high over the river along the Manhattan Bridge Sometimes I put on my headphones and listen to music Sometimes I do the New York Times crossword puzzle And sometimes I read But no matter what else I'm doing I consider it very bad luck if I forget to look up as the train crosses over the East River even just for a second before it goes back underground It's just a superstition,Why does the narrator always look up when the D train crosses the East River?,A. To enjoy the view,B. To avoid bad luck,C. To read the subway signs,D. To see if it's raining,B. To avoid bad luck,yes,10.53375,,,,,,,,,,,,,0,23,23,23,0,0,0,0,0,0,0,0,1089.1872114999999,,,,,,,,,,,,,,,1073.2806545409999,1073.2961008746665,1073.2965347079999,1083.841078666,1083.844045291,1083.855275708,1084.066870166,1084.066870166,1087.1067431249999,1087.487091541,10.0,3.223250042000018,1,[0.39338612500000636],[0.3933885829999326],,,,,,,1089.1760172909999,1089.1872114999999,1089.1872114999999,1118.052197666,always do different things while on the train in NYC but always look up in some tunnel because it's bad luck not to do that its a superstition,1,[28.87296133300015],[28.872965125000064],,,,,,,,,,,,,,,,,,,,,,1071.675018708,1071.681297958,1071.681297958,1071.681297958,1073.2804207499998,1,[1.604861000000028],[1.6048636250000072],1087.4875991249999,1087.4922951249998,1089.17517325,1,[1.6870329169998968],[1.6870361249998496],,,,,,,p_1,001,2024-04-26_10h49.59.169,speech_rate,2023.2.3,None,2024-04-26 10h50.14.364240 -0700,
,Someday_18_condition-3x.wav,Someday__Someday__Maybe__Unabridged___File_011_of_116_1.wav,The D train between Brooklyn and Manhattan is one of my favorite lines because at one the train emerges from underground and goes high over the river along the Manhattan Bridge Sometimes I put on my headphones and listen to music Sometimes I do the New York Times crossword puzzle And sometimes I read But no matter what else I'm doing I consider it very bad luck if I forget to look up as the train crosses over the East River even just for a second before it goes back underground It's just a superstition,Why does the narrator always look up when the D train crosses the East River?,A. To enjoy the view,B. To avoid bad luck,C. To read the subway signs,D. To see if it's raining,B. To avoid bad luck,yes,10.53375,,,,,,,,,,,,,0,23,23,23,0,0,0,0,,,,,,,,,,,,,,,,,,,,,,,,,,,,,,,,,,,,,,,,,,,,,,,,,,,,,,,,,,,,,,,,,,,,,,,,,,,,,,,,,,,,,,,,,,p_1,001,2024-04-26_10h49.59.169,speech_rate,2023.2.3,None,2024-04-26 10h50.14.364240 -0700,
,Someday_18_condition-3x.wav,Someday__Someday__Maybe__Unabridged___File_011_of_116_1.wav,The D train between Brooklyn and Manhattan is one of my favorite lines because at one the train emerges from underground and goes high over the river along the Manhattan Bridge Sometimes I put on my headphones and listen to music Sometimes I do the New York Times crossword puzzle And sometimes I read But no matter what else I'm doing I consider it very bad luck if I forget to look up as the train crosses over the East River even just for a second before it goes back underground It's just a superstition,Why does the narrator always look up when the D train crosses the East River?,A. To enjoy the view,B. To avoid bad luck,C. To read the subway signs,D. To see if it's raining,B. To avoid bad luck,yes,10.53375,,,,,,,,,,,,,0,23,23,23,,,,,,,,,,,,,,,,,,,,,,,,,,,,,,,,,,,,,,,,,,,,,,,,,,,,,1118.052670416,1121.4367694159998,0,,,1,3.374327416000142,3.374330208000174,0,,,0,,,,,,,,,,,,,,,,,,,,,,,,,,,,,,p_1,001,2024-04-26_10h49.59.169,speech_rate,2023.2.3,None,2024-04-26 10h50.14.364240 -0700,
,Someday_16_condition-5x.wav,Someday__Someday__Maybe__Unabridged___File_010_of_116_0.wav,When he tries to describe the story to me I find myself counting the planks in our floor weighing the merits of vegetable versus scallion cream cheese But I'm sure it's better than it sounds How's my hair I'm taking an apartment wide poll for some reason this time my question is accompanied by a weird sort of tap step Flourish in order to sell it I hate myself I must be stopped Big he says hopefully huh,What does the narrator do while the person describes the story to her?,A. Counts the planks in the floor,B. Weighs the merits of cream cheese,C. Dances a tap step,D. Flips her hair dramatically,A. Counts the planks in the floor,yes,5.516,,,,,,,,,,,,,0,24,24,24,0,0,0,0,0,0,0,0,1132.6564194579998,,,,,,,,,,,,,,,1123.650562291,1123.6664636246667,1123.661554958,1129.177011083,1129.189299208,1129.2005554579998,1129.45749725,1129.45749725,1131.5823935409999,1132.0619567909998,1.8333333333333335,2.3572192080000605,1,[0.4885406250000415],[0.48854387500000485],,,,,,,1132.645371583,1132.6564194579998,1132.6564194579998,1141.8021543329999,he says successfully huh?,1,[9.15361920800001],[9.153622208000115],,,,,,,,,,,,,,,,,,,,,,1121.437330083,1121.444772208,1121.444772208,1121.444772208,1123.6503639999999,1,[2.211414667000099],[2.2114170840000043],1132.06249525,1132.06763325,1132.644581041,1,[0.5814847909998662],[0.5814874159998453],,,,,,,p_1,001,2024-04-26_10h49.59.169,speech_rate,2023.2.3,None,2024-04-26 10h50.14.364240 -0700,
,Someday_16_condition-5x.wav,Someday__Someday__Maybe__Unabridged___File_010_of_116_0.wav,When he tries to describe the story to me I find myself counting the planks in our floor weighing the merits of vegetable versus scallion cream cheese But I'm sure it's better than it sounds How's my hair I'm taking an apartment wide poll for some reason this time my question is accompanied by a weird sort of tap step Flourish in order to sell it I hate myself I must be stopped Big he says hopefully huh,What does the narrator do while the person describes the story to her?,A. Counts the planks in the floor,B. Weighs the merits of cream cheese,C. Dances a tap step,D. Flips her hair dramatically,A. Counts the planks in the floor,yes,5.516,,,,,,,,,,,,,0,24,24,24,0,0,0,0,,,,,,,,,,,,,,,,,,,,,,,,,,,,,,,,,,,,,,,,,,,,,,,,,,,,,,,,,,,,,,,,,,,,,,,,,,,,,,,,,,,,,,,,,,p_1,001,2024-04-26_10h49.59.169,speech_rate,2023.2.3,None,2024-04-26 10h50.14.364240 -0700,
,Someday_16_condition-5x.wav,Someday__Someday__Maybe__Unabridged___File_010_of_116_0.wav,When he tries to describe the story to me I find myself counting the planks in our floor weighing the merits of vegetable versus scallion cream cheese But I'm sure it's better than it sounds How's my hair I'm taking an apartment wide poll for some reason this time my question is accompanied by a weird sort of tap step Flourish in order to sell it I hate myself I must be stopped Big he says hopefully huh,What does the narrator do while the person describes the story to her?,A. Counts the planks in the floor,B. Weighs the merits of cream cheese,C. Dances a tap step,D. Flips her hair dramatically,A. Counts the planks in the floor,yes,5.516,,,,,,,,,,,,,0,24,24,24,,,,,,,,,,,,,,,,,,,,,,,,,,,,,,,,,,,,,,,,,,,,,,,,,,,,,1141.80261625,1169.896712666,1,28.08395941699996,28.08396199999993,0,,,0,,,0,,,,,,,,,,,,,,,,,,,,,,,,,,,,,,p_1,001,2024-04-26_10h49.59.169,speech_rate,2023.2.3,None,2024-04-26 10h50.14.364240 -0700,
,Someday_5_condition-5x.wav,Someday__Someday__Maybe__Unabridged___File_005_of_116_4.wav,I am late Frank is the neighbor whose apartment we can see into from the windows in the back of our brownstone Frank leads a mysterious solitary life but one you can set a clock by He rises at eight sits in front of a computer from nine to one goes out and gets a sandwich is back at the computer from two until six thirty is gone from six thirty to eight and then watches TV from eight until eleven p m after which he goes promptly to sleep The schedule never changes No one ever comes over,"Who is Frank, and what is his daily routine?","A. Frank is the narrator's neighbor, and he works from home.","B. Frank is the narrator's roommate, and he works from home.","C. Frank is the narrator's friend, and he enjoys watching TV all day.","D. Frank is the narrator's landlord, and he travels frequently.","A. Frank is the narrator's neighbor, and he works from home.",no,5.954,,,,,,,,,,,,,0,25,25,25,,,,,,,,,1169.904977791,,,,,,,,,,,,,,,1170.446917041,1170.4623968746666,1170.458803416,1176.40318775,1176.419770041,1176.430979583,1176.65121925,1176.65121925,1178.223175333,1179.9259975,1.4333333333333336,2.9510764579999886,1,[1.7123528329998408],[1.712355165999952],,,,,,,,,,,,,,,1179.926449,1187.247383916,1,7.310008833999973,7.31001133399991,0,,,0,,,0,,,,,,,,,,1169.897321125,1169.904977791,1169.904977791,1169.904977791,1170.446662375,1,[0.547421125000028],[0.5474237079999966],,,,,,,,,,,,,p_1,001,2024-04-26_10h49.59.169,speech_rate,2023.2.3,None,2024-04-26 10h50.14.364240 -0700,
,Someday_107_condition-4x.wav,Someday__Someday__Maybe__Unabridged___File_048_of_116_0.wav,One more thing from last night Yeah Apparently We're not supposed to wash our jeans anymore the wardrobe lady told me We are only supposed to dry clean them What That's insane Yep We're supposed to buy jeans really tight as tight as we can squeeze into so all the fat gets compressed into as little space as possible Then we want the fat compression level to stay that way for as long as it can right Well washing jeans makes them softer and baggier and lessens the fat compression quotient,Why are people advised not to wash their jeans anymore?,A. To save water and be more environmentally friendly,B. To maintain the tight fit and fat compression,C. To reduce laundry expenses,D. To prevent jeans from fading,B. To maintain the tight fit and fat compression,no,7.25,,,,,,,,,,,,,0,26,26,26,,,,,,,,,1187.255202958,,,,,,,,,,,,,,,1188.267008916,1188.2800839996667,1188.280501041,1195.530737541,1195.5334398749999,1195.5443653749999,1195.750177333,1195.750177333,1197.0740735,1197.627090708,2.2,1.5028165410001293,1,[0.5620837920000668],[0.5620865830001094],,,,,,,,,,,,,,,1197.6275490829998,1204.1484470409998,0,,,0,,,1,6.511436250000088,6.511439709000115,0,,,,,,,,,,1187.2479323329999,1187.255202958,1187.255202958,1187.255202958,1188.2667253749999,1,[1.0153831669999818],[1.0153947090000202],,,,,,,,,,,,,p_1,001,2024-04-26_10h49.59.169,speech_rate,2023.2.3,None,2024-04-26 10h50.14.364240 -0700,
,Someday_120_condition-4x.wav,Someday__Someday__Maybe__Unabridged___File_053_of_116_2.wav,Everything you need is in each packet so it takes the guesswork out of dieting You sound like you've joined a cult What happens when you have to go back to the real world the world where you have to think for yourself Hopefully I'll be so weak and frail that food will have lost its appeal entirely Great plan And who's on Lisa today I'm pretty sure today's show is Women Who Wish Their Best Friends Would Stop Judging Them Har har I'm going to work now Do you want me to take the TV cord with me,"What topic is discussed on Lisa's show, in the narrator's joke?",A. Weight loss programs,B. The challenges of dieting,C. Women's relationships with their best friends,D. The appeal of joining a cult,C. Women's relationships with their best friends,yes,6.9425,,,,,,,,,,,,,0,27,27,27,0,0,0,0,0,0,0,0,1216.578051083,,,,,,,,,,,,,,,1205.8717360409998,1205.8870714166667,1205.885142458,1212.818879375,1212.8337005409999,1212.844484125,1213.048953458,1213.048953458,1214.736731583,1215.5996257499999,1.7750000000000004,1.8677052919999824,1,[0.8719525840001552],[0.8719551670001238],,,,,,,1216.5667623749998,1216.578051083,1216.578051083,1226.0564756659999,har har do you want to do [] with me,1,[9.486523874999875],[9.486526666999907],,,,,,,,,,,,,,,,,,,,,,1204.1489756659998,1204.163593125,1204.163593125,1204.163593125,1205.8714632909998,1,[1.720879375000095],[1.7208821249998891],1215.600180041,1215.6051505409998,1216.5659303749999,1,[0.9651638340001227],[0.9651664170000913],,,,,,,p_1,001,2024-04-26_10h49.59.169,speech_rate,2023.2.3,None,2024-04-26 10h50.14.364240 -0700,
,Someday_120_condition-4x.wav,Someday__Someday__Maybe__Unabridged___File_053_of_116_2.wav,Everything you need is in each packet so it takes the guesswork out of dieting You sound like you've joined a cult What happens when you have to go back to the real world the world where you have to think for yourself Hopefully I'll be so weak and frail that food will have lost its appeal entirely Great plan And who's on Lisa today I'm pretty sure today's show is Women Who Wish Their Best Friends Would Stop Judging Them Har har I'm going to work now Do you want me to take the TV cord with me,"What topic is discussed on Lisa's show, in the narrator's joke?",A. Weight loss programs,B. The challenges of dieting,C. Women's relationships with their best friends,D. The appeal of joining a cult,C. Women's relationships with their best friends,yes,6.9425,,,,,,,,,,,,,0,27,27,27,0,0,0,0,,,,,,,,,,,,,,,,,,,,,,,,,,,,,,,,,,,,,,,,,,,,,,,,,,,,,,,,,,,,,,,,,,,,,,,,,,,,,,,,,,,,,,,,,,p_1,001,2024-04-26_10h49.59.169,speech_rate,2023.2.3,None,2024-04-26 10h50.14.364240 -0700,
,Someday_120_condition-4x.wav,Someday__Someday__Maybe__Unabridged___File_053_of_116_2.wav,Everything you need is in each packet so it takes the guesswork out of dieting You sound like you've joined a cult What happens when you have to go back to the real world the world where you have to think for yourself Hopefully I'll be so weak and frail that food will have lost its appeal entirely Great plan And who's on Lisa today I'm pretty sure today's show is Women Who Wish Their Best Friends Would Stop Judging Them Har har I'm going to work now Do you want me to take the TV cord with me,"What topic is discussed on Lisa's show, in the narrator's joke?",A. Weight loss programs,B. The challenges of dieting,C. Women's relationships with their best friends,D. The appeal of joining a cult,C. Women's relationships with their best friends,yes,6.9425,,,,,,,,,,,,,0,27,27,27,,,,,,,,,,,,,,,,,,,,,,,,,,,,,,,,,,,,,,,,,,,,,,,,,,,,,1226.056952958,1251.4348130409999,1,25.366829832999883,25.366833040999836,0,,,0,,,0,,,,,,,,,,,,,,,,,,,,,,,,,,,,,,p_1,001,2024-04-26_10h49.59.169,speech_rate,2023.2.3,None,2024-04-26 10h50.14.364240 -0700,
,Someday_36_condition-5x.wav,Someday__Someday__Maybe__Unabridged___File_020_of_116_1.wav,Everyone already knows everyone knows I fell they saw everything I'm humiliated What's that I say trying to buy myself some time to figure out how to respond with dignity nice class I said huh Right Everyone seems to be doing well tonight Oh Right Yes they do Did you by any chance see my monologue No sorry but I heard part of it on the monitor sound like you really went for it Oh Thanks Yes I do think I went for it,How does the narrator feel after the monologue?,A. She is humiliated,B. She is satisfied,C. She is happy,D. She is moved by it,A. She is humiliated,yes,5.966,,,,,,,,,,,,,0,28,28,28,0,0,0,0,0,0,0,0,1262.219568708,,,,,,,,,,,,,,,1252.934515291,1252.9503984576666,1252.946505916,1258.9177997499999,1258.920645083,1258.931863458,1259.15006725,1259.15006725,1261.0834607909999,1261.526399083,2.05,2.1241174580000006,1,[0.455370584000093],[0.455373125000051],,,,,,,1262.208251041,1262.219568708,1262.219568708,1274.975453375,mike's class do something before it,1,[12.763933624999936],[12.763936541000021],,,,,,,,,,,,,,,,,,,,,,1251.435403916,1251.441800166,1251.441800166,1251.441800166,1252.9343140409999,1,[1.4983496669999568],[1.498352167000121],1261.526947458,1261.5325377909999,1262.2075601249999,1,[0.6800603330000285],[0.6800630410000394],,,,,,,p_1,001,2024-04-26_10h49.59.169,speech_rate,2023.2.3,None,2024-04-26 10h50.14.364240 -0700,
,Someday_36_condition-5x.wav,Someday__Someday__Maybe__Unabridged___File_020_of_116_1.wav,Everyone already knows everyone knows I fell they saw everything I'm humiliated What's that I say trying to buy myself some time to figure out how to respond with dignity nice class I said huh Right Everyone seems to be doing well tonight Oh Right Yes they do Did you by any chance see my monologue No sorry but I heard part of it on the monitor sound like you really went for it Oh Thanks Yes I do think I went for it,How does the narrator feel after the monologue?,A. She is humiliated,B. She is satisfied,C. She is happy,D. She is moved by it,A. She is humiliated,yes,5.966,,,,,,,,,,,,,0,28,28,28,0,0,0,0,,,,,,,,,,,,,,,,,,,,,,,,,,,,,,,,,,,,,,,,,,,,,,,,,,,,,,,,,,,,,,,,,,,,,,,,,,,,,,,,,,,,,,,,,,p_1,001,2024-04-26_10h49.59.169,speech_rate,2023.2.3,None,2024-04-26 10h50.14.364240 -0700,
,Someday_36_condition-5x.wav,Someday__Someday__Maybe__Unabridged___File_020_of_116_1.wav,Everyone already knows everyone knows I fell they saw everything I'm humiliated What's that I say trying to buy myself some time to figure out how to respond with dignity nice class I said huh Right Everyone seems to be doing well tonight Oh Right Yes they do Did you by any chance see my monologue No sorry but I heard part of it on the monitor sound like you really went for it Oh Thanks Yes I do think I went for it,How does the narrator feel after the monologue?,A. She is humiliated,B. She is satisfied,C. She is happy,D. She is moved by it,A. She is humiliated,yes,5.966,,,,,,,,,,,,,0,28,28,28,,,,,,,,,,,,,,,,,,,,,,,,,,,,,,,,,,,,,,,,,,,,,,,,,,,,,1274.975920083,1278.245258333,0,,,0,,,0,,,1,3.2604197499999827,3.260422875000131,,,,,,,,,,,,,,,,,,,,,,,,,,,,p_1,001,2024-04-26_10h49.59.169,speech_rate,2023.2.3,None,2024-04-26 10h50.14.364240 -0700,
,Someday_89_condition-3x.wav,Someday__Someday__Maybe__Unabridged___File_039_of_116_2.wav,Excuse me can you tell me what day of the week it is they'll say and laugh I'm leaning awkwardly against the wall near the door not sure what to do while I wait Maybe I should sit Plenty of people use sitting as a way to pass the time I look at the giant table and multitude of chairs Unless a bunch of people are going to join us this seems a strange room to choose for a meeting of two Yes I think I'll sit But I'm not sure which spot to choose I'm not totally sure I even want to sit yet,Why does the narrator feel uncertain about sitting in the room?,A. She is worried about her outfit,B. She doesn't know which chair to choose,C. She prefers to stand,D. She has somewhere else to be,B. She doesn't know which chair to choose,yes,10.7775,,,,,,,,,,,,,0,29,29,29,0,0,0,0,0,0,0,0,1293.77132025,,,,,,,,,,,,,,,1279.861408541,1279.8749845416667,1279.8776074579998,1290.6507689579998,1290.655367375,1290.666023416,1290.8932164159999,1290.8932164159999,1291.996435958,1292.47066075,10,1.3018207079999229,1,[0.48366633399996317],[0.4836688339999],,,,,,,1293.760177208,1293.77132025,1293.77132025,1320.846698958,this person arrives to a meeting in a huge room but it's only for two people and the person doesn't know if they want to sit or where,1,[27.083255792000045],[27.083258583000088],,,,,,,,,,,,,,,,,,,,,,1278.2458039159999,1278.2530895,1278.2530895,1278.2530895,1279.861129333,1,[1.6125095000002148],[1.6125265420000687],1292.4711989579998,1292.4757755409998,1293.759381375,1,[1.287601708000011],[1.2876044170000114],,,,,,,p_1,001,2024-04-26_10h49.59.169,speech_rate,2023.2.3,None,2024-04-26 10h50.14.364240 -0700,
,Someday_89_condition-3x.wav,Someday__Someday__Maybe__Unabridged___File_039_of_116_2.wav,Excuse me can you tell me what day of the week it is they'll say and laugh I'm leaning awkwardly against the wall near the door not sure what to do while I wait Maybe I should sit Plenty of people use sitting as a way to pass the time I look at the giant table and multitude of chairs Unless a bunch of people are going to join us this seems a strange room to choose for a meeting of two Yes I think I'll sit But I'm not sure which spot to choose I'm not totally sure I even want to sit yet,Why does the narrator feel uncertain about sitting in the room?,A. She is worried about her outfit,B. She doesn't know which chair to choose,C. She prefers to stand,D. She has somewhere else to be,B. She doesn't know which chair to choose,yes,10.7775,,,,,,,,,,,,,0,29,29,29,0,0,0,0,,,,,,,,,,,,,,,,,,,,,,,,,,,,,,,,,,,,,,,,,,,,,,,,,,,,,,,,,,,,,,,,,,,,,,,,,,,,,,,,,,,,,,,,,,p_1,001,2024-04-26_10h49.59.169,speech_rate,2023.2.3,None,2024-04-26 10h50.14.364240 -0700,
,Someday_89_condition-3x.wav,Someday__Someday__Maybe__Unabridged___File_039_of_116_2.wav,Excuse me can you tell me what day of the week it is they'll say and laugh I'm leaning awkwardly against the wall near the door not sure what to do while I wait Maybe I should sit Plenty of people use sitting as a way to pass the time I look at the giant table and multitude of chairs Unless a bunch of people are going to join us this seems a strange room to choose for a meeting of two Yes I think I'll sit But I'm not sure which spot to choose I'm not totally sure I even want to sit yet,Why does the narrator feel uncertain about sitting in the room?,A. She is worried about her outfit,B. She doesn't know which chair to choose,C. She prefers to stand,D. She has somewhere else to be,B. She doesn't know which chair to choose,yes,10.7775,,,,,,,,,,,,,0,29,29,29,,,,,,,,,,,,,,,,,,,,,,,,,,,,,,,,,,,,,,,,,,,,,,,,,,,,,1320.847163,1326.591107,0,,,1,5.7334496660000696,5.733452500000112,0,,,0,,,,,,,,,,,,,,,,,,,,,,,,,,,,,,p_1,001,2024-04-26_10h49.59.169,speech_rate,2023.2.3,None,2024-04-26 10h50.14.364240 -0700,
,Someday_122_condition-4x.wav,Someday__Someday__Maybe__Unabridged___File_054_of_116_2.wav,When I first started watching it was just for a few minutes right after Lisa and before the first commercial break I was more fascinated than interested I would use the show as a kind of acting exercise challenging myself with the hokey dialogue saying the lines out loud to myself just to see if I could make the scenes feel more real than the actors on the show did I wondered if it was the actor's fault that the whole thing seemed so ridiculous or if there's truly nothing you can do to make it less phony given how phony it looks,How does the narrator approach the show?,A. As a truly fascinating show,B. As an acting practice,C. She never watches it,D. As a way to pass some quality time,B. As an acting practice,no,7.3875,,,,,,,,,,,,,0,30,30,30,,,,,,,,,1326.604525125,,,,,,,,,,,,,,,1327.878986166,1327.8943457076666,1327.892740541,1335.288742041,1335.291339333,1335.302011791,1335.5625874579998,1335.5625874579998,1338.443924958,1339.13474225,2.0083333333333333,3.1174193330000435,1,[0.6998465409999426],[0.6998487910000222],,,,,,,,,,,,,,,1339.135164583,1344.209222125,0,,,1,5.065881541999943,5.06589262500006,0,,,0,,,,,,,,,,1326.5917078749999,1326.604525125,1326.604525125,1326.604525125,1327.8787123749998,1,[1.2851739580000867],[1.2851767079998808],,,,,,,,,,,,,p_1,001,2024-04-26_10h49.59.169,speech_rate,2023.2.3,None,2024-04-26 10h50.14.364240 -0700,
,Someday_29_condition-5x.wav,Someday__Someday__Maybe__Unabridged___File_017_of_116_1.wav,You said you're new Who Me Well sort of yes I'm new to class but I've lived in New York for a little while two years over two years I worked for my dad at his school and then I was in a theater company for a long time before that touring and also I've done one commercial and that's it Ugh I'm babbling At least I didn't tell him the company was called Go Kids and we played stupid fairy tale characters and the only places we toured were elementary schools in the Tri State area Oh God what if he asks what company I was in I wish I hadn't mentioned the commercial either,What is the narrator worried about regarding her introduction to the person she meets on the street?,A. Revealing too much about her background,B. Not providing enough information,C. Mentioning the wrong company name,D. Being too concise in her introduction,A. Revealing too much about her background,yes,5.908,,,,,,,,,,,,,0,31,31,31,0,0,0,0,0,0,0,0,1354.221117583,,,,,,,,,,,,,,,1344.9734665409999,1344.9888961246666,1344.985217041,1350.8965202499999,1350.8974343329999,1350.908520916,1351.126495833,1351.126495833,1352.927507791,1353.559661583,1.2583333333333335,1.994303958000046,1,[0.6411509580000256],[0.6411535830000048],,,,,,,1354.208760791,1354.221117583,1354.221117583,1359.6746209579999,oh god something moving,1,[5.462603542000124],[5.462606792000088],,,,,,,,,,,,,,,,,,,,,,1344.209772083,1344.2221755,1344.2221755,1344.2221755,1344.9732300829999,1,[0.7616734170001109],[0.7616759170000478],1353.5602146659999,1353.572047416,1354.2079864999998,1,[0.6471069579999948],[0.6471098330000586],,,,,,,p_1,001,2024-04-26_10h49.59.169,speech_rate,2023.2.3,None,2024-04-26 10h50.14.364240 -0700,
,Someday_29_condition-5x.wav,Someday__Someday__Maybe__Unabridged___File_017_of_116_1.wav,You said you're new Who Me Well sort of yes I'm new to class but I've lived in New York for a little while two years over two years I worked for my dad at his school and then I was in a theater company for a long time before that touring and also I've done one commercial and that's it Ugh I'm babbling At least I didn't tell him the company was called Go Kids and we played stupid fairy tale characters and the only places we toured were elementary schools in the Tri State area Oh God what if he asks what company I was in I wish I hadn't mentioned the commercial either,What is the narrator worried about regarding her introduction to the person she meets on the street?,A. Revealing too much about her background,B. Not providing enough information,C. Mentioning the wrong company name,D. Being too concise in her introduction,A. Revealing too much about her background,yes,5.908,,,,,,,,,,,,,0,31,31,31,0,0,0,0,,,,,,,,,,,,,,,,,,,,,,,,,,,,,,,,,,,,,,,,,,,,,,,,,,,,,,,,,,,,,,,,,,,,,,,,,,,,,,,,,,,,,,,,,,p_1,001,2024-04-26_10h49.59.169,speech_rate,2023.2.3,None,2024-04-26 10h50.14.364240 -0700,
,Someday_29_condition-5x.wav,Someday__Someday__Maybe__Unabridged___File_017_of_116_1.wav,You said you're new Who Me Well sort of yes I'm new to class but I've lived in New York for a little while two years over two years I worked for my dad at his school and then I was in a theater company for a long time before that touring and also I've done one commercial and that's it Ugh I'm babbling At least I didn't tell him the company was called Go Kids and we played stupid fairy tale characters and the only places we toured were elementary schools in the Tri State area Oh God what if he asks what company I was in I wish I hadn't mentioned the commercial either,What is the narrator worried about regarding her introduction to the person she meets on the street?,A. Revealing too much about her background,B. Not providing enough information,C. Mentioning the wrong company name,D. Being too concise in her introduction,A. Revealing too much about her background,yes,5.908,,,,,,,,,,,,,0,31,31,31,,,,,,,,,,,,,,,,,,,,,,,,,,,,,,,,,,,,,,,,,,,,,,,,,,,,,1359.675075375,1366.94146725,0,,,0,,,1,7.254571749999968,7.254574542,0,,,,,,,,,,,,,,,,,,,,,,,,,,,,,,p_1,001,2024-04-26_10h49.59.169,speech_rate,2023.2.3,None,2024-04-26 10h50.14.364240 -0700,
,Someday_79_condition-3x.wav,Someday__Someday__Maybe__Unabridged___File_036_of_116_1.wav,But something is holding me back It would be so easy to say yes and leave this room with an agent almost too easy I Look around the room and the walls of old scripts and playbills that seemed warm and friendly when I first came in Now look cluttered and shabby the leather on the arms of this giant lumpy chair is worn thin The stuffing is peeking through one of the seams and the sunlight streaming through the window is cloudy with dust I stammer a bit,What is one of the factors that is preventing the narrator from immediately accepting the agent's offer?,A. The agent's appearance,B. The condition of the room,C. The agent's attitude,D. The lack of other actors,B. The condition of the room,no,10.66875,,,,,,,,,,,,,0,32,32,32,,,,,,,,,1366.948786333,,,,,,,,,,,,,,,1367.413910791,1367.4293825826667,1367.43026825,1378.107883875,1378.110879458,1378.1221005,1378.327186166,1378.327186166,1379.546431,1380.070538166,10,1.3998842500000137,1,[0.5334728749999158],[0.5334752080000271],,,,,,,,,,,,,,,1380.070946958,1388.3758464159998,0,,,1,8.295636291999926,8.29563916699999,0,,,0,,,,,,,,,,1366.9419827909999,1366.948786333,1366.948786333,1366.948786333,1367.413679,1,[0.47004804200014405],[0.47005070800014437],,,,,,,,,,,,,p_1,001,2024-04-26_10h49.59.169,speech_rate,2023.2.3,None,2024-04-26 10h50.14.364240 -0700,
,Someday_108_condition-5x.wav,Someday__Someday__Maybe__Unabridged___File_048_of_116_1.wav,Clothes that have to be dry cleaned are already the most expensive clothes Then it's like they're charging you another 3 every time you wear them Regular clothes charge money to clean them if we're looking at it that way Regular laundry costs money too but not as much And you can do regular laundry yourself Dry cleaning is like the secret society you're not allowed into No matter what you're at their mercy You can have a PhD in anything but you still can't dry clean your own clothes They'll never tell you how No one's ever even seen what the machine looks like,What is the narrator's opinion about dry cleaning?,A. It's less expensive than regular laundry,B. It's a secret society with hidden machines,C. It's environmentally friendly,D. It's a simple and accessible process,B. It's a secret society with hidden machines,yes,5.734,,,,,,,,,,,,,0,33,33,33,0,0,0,0,0,0,0,0,1399.614610208,,,,,,,,,,,,,,,1389.309482291,1389.3248296246666,1389.321479666,1395.059015625,1395.0628044999999,1395.073309375,1395.277846166,1395.277846166,1396.4683700829999,1398.9265101659998,1.2333333333333332,3.316616791999877,1,[2.4673199159999513],[2.467322082999999],,,,,,,1399.603151,1399.614610208,1399.614610208,1406.276772541,everything seems like,1,[6.67033308300006],[6.6703361669999595],,,,,,,,,,,,,,,,,,,,,,1388.3763670829999,1388.382264541,1388.382264541,1388.382264541,1389.3092299579998,1,[0.9322524169999724],[0.9322552090000045],1398.9270259579998,1398.941519541,1399.602341583,1,[0.674402832999931],[0.6744052910000846],,,,,,,p_1,001,2024-04-26_10h49.59.169,speech_rate,2023.2.3,None,2024-04-26 10h50.14.364240 -0700,
,Someday_108_condition-5x.wav,Someday__Someday__Maybe__Unabridged___File_048_of_116_1.wav,Clothes that have to be dry cleaned are already the most expensive clothes Then it's like they're charging you another 3 every time you wear them Regular clothes charge money to clean them if we're looking at it that way Regular laundry costs money too but not as much And you can do regular laundry yourself Dry cleaning is like the secret society you're not allowed into No matter what you're at their mercy You can have a PhD in anything but you still can't dry clean your own clothes They'll never tell you how No one's ever even seen what the machine looks like,What is the narrator's opinion about dry cleaning?,A. It's less expensive than regular laundry,B. It's a secret society with hidden machines,C. It's environmentally friendly,D. It's a simple and accessible process,B. It's a secret society with hidden machines,yes,5.734,,,,,,,,,,,,,0,33,33,33,0,0,0,0,,,,,,,,,,,,,,,,,,,,,,,,,,,,,,,,,,,,,,,,,,,,,,,,,,,,,,,,,,,,,,,,,,,,,,,,,,,,,,,,,,,,,,,,,,p_1,001,2024-04-26_10h49.59.169,speech_rate,2023.2.3,None,2024-04-26 10h50.14.364240 -0700,
,Someday_108_condition-5x.wav,Someday__Someday__Maybe__Unabridged___File_048_of_116_1.wav,Clothes that have to be dry cleaned are already the most expensive clothes Then it's like they're charging you another 3 every time you wear them Regular clothes charge money to clean them if we're looking at it that way Regular laundry costs money too but not as much And you can do regular laundry yourself Dry cleaning is like the secret society you're not allowed into No matter what you're at their mercy You can have a PhD in anything but you still can't dry clean your own clothes They'll never tell you how No one's ever even seen what the machine looks like,What is the narrator's opinion about dry cleaning?,A. It's less expensive than regular laundry,B. It's a secret society with hidden machines,C. It's environmentally friendly,D. It's a simple and accessible process,B. It's a secret society with hidden machines,yes,5.734,,,,,,,,,,,,,0,33,33,33,,,,,,,,,,,,,,,,,,,,,,,,,,,,,,,,,,,,,,,,,,,,,,,,,,,,,1406.277295833,1411.236076833,0,,,0,,,1,4.94820879100007,4.948211915999991,0,,,,,,,,,,,,,,,,,,,,,,,,,,,,,,p_1,001,2024-04-26_10h49.59.169,speech_rate,2023.2.3,None,2024-04-26 10h50.14.364240 -0700,
