index,wav_file,old_name,segment_text,question,C1,C2,C3,C4,C_correct,summary,duration,training.thisRepN,training.thisTrialN,training.thisN,training.thisIndex,sum_true.thisRepN,sum_true.thisTrialN,sum_true.thisN,sum_true.thisIndex,dummy_loop.thisRepN,dummy_loop.thisTrialN,dummy_loop.thisN,dummy_loop.thisIndex,experiment.thisRepN,experiment.thisTrialN,experiment.thisN,experiment.thisIndex,sum_true_exp.thisRepN,sum_true_exp.thisTrialN,sum_true_exp.thisN,sum_true_exp.thisIndex,dummy_loop_exp.thisRepN,dummy_loop_exp.thisTrialN,dummy_loop_exp.thisN,dummy_loop_exp.thisIndex,thisRow.t,notes,Experimenter.started,reminder.started,Experimenter.stopped,Instructions.started,Instructions.stopped,Start_Segment_Train.started,Play_train.started,Trial_counter_train.started,text_5.started,Start_Segment_Train.stopped,Play_train.numClicks,Play_train.timesOn,Play_train.timesOff,Training_Segment.started,Experimen_audio.started,polygon.started,polygon.stopped,Training_Segment.stopped,Rating.started,slider.started,text_3.started,button_2.started,Rating.stopped,slider.response,slider.rt,button_2.numClicks,button_2.timesOn,button_2.timesOff,Start_Summary.started,text_2.started,Start_Summary.stopped,summary_button.numClicks,summary_button.timesOn,summary_button.timesOff,Summary.started,textbox.started,summary_done.started,Summary.stopped,textbox.text,summary_done.numClicks,summary_done.timesOn,summary_done.timesOff,Multiple_Choice_2.started,Multiple_Choice_2.stopped,A.numClicks,A.timesOn,A.timesOff,B.numClicks,B.timesOn,B.timesOff,C.numClicks,C.timesOn,C.timesOff,D.numClicks,D.timesOn,D.timesOff,Start_Exp.started,Start_exp.started,Start.started,Start_Exp.stopped,Start.numClicks,Start.timesOn,Start.timesOff,Start_Segment.started,Play.started,Trial_counter.started,text_6.started,Start_Segment.stopped,Play.numClicks,Play.timesOn,Play.timesOff,Start_Sum_Exp.started,text_4.started,Start_Sum_Exp.stopped,sum_button.numClicks,sum_button.timesOn,sum_button.timesOff,textbox.stopped,summary_done.stopped,Thanks.started,text_7.started,Thanks.stopped,participant,session,date,expName,psychopyVersion,frameRate,expStart,
1,Someday_trial_condition.wav,Someday__Someday__Maybe__Unabridged___File_069_of_116_3.wav,It's a gut feeling You can't nickname him He's a real person not a joke person You don't have to tell me Only a real person would try to shake hands with my best friend's foot Jane you're not explaining it right It was very romantic And thankfully our steaming bowl of bright yellow melted cheese with flecks of green chilies arrives Listen she says dipping a chip into the creamy depths You're the one with the brand new personality I'm still the same old Jane,"What does the narrator have, according to Jane?",A) A new recipe for dipping sauce,B) A new personality,C) A new restaurant suggestion,D) A new pair of shoes,B) A new personality,yes,30,0,0,0,0,0,0,0,0,0,0,0,0,,,,,,,,,,,,,329.783799249999,,0.010045917000752524,0.01886545799970918,266.7074940830007,266.7075051669999,289.64664229200025,289.6550444170007,289.6725588749996,289.6725588749996,289.6725588749996,291.64711262499986,1,[1.9821931669994228],[1.982196582999677],291.6474749579993,291.6967151670004,291.6883294580002,321.7017945000007,321.6725478749995,321.69377887500013,321.90587937499913,321.90587937499913,324.76696654199986,326.16177683299975,9.95,3.0445594159991742,1,[1.4047921250003128],[1.4047945830006938],326.1624689580003,326.17145020799944,329.74595504199897,1,[3.5828186250000726],[3.5828215000001364],329.74682770800064,329.783799249999,329.783799249999,359.74836266700004,"she was talking about a friend trying to shake her foot, about a strange bowl of chili that she was di",0,,,,,,,,,,,,,,,,,,,,,,,,,,,,,,,,,,,,,,,,,,,p_8,001,2024-05-08_16h23.28.241,speech_rate,2023.2.3,None,2024-05-08 16h23.40.947520 -0700,
1,Someday_trial_condition.wav,Someday__Someday__Maybe__Unabridged___File_069_of_116_3.wav,It's a gut feeling You can't nickname him He's a real person not a joke person You don't have to tell me Only a real person would try to shake hands with my best friend's foot Jane you're not explaining it right It was very romantic And thankfully our steaming bowl of bright yellow melted cheese with flecks of green chilies arrives Listen she says dipping a chip into the creamy depths You're the one with the brand new personality I'm still the same old Jane,"What does the narrator have, according to Jane?",A) A new recipe for dipping sauce,B) A new personality,C) A new restaurant suggestion,D) A new pair of shoes,B) A new personality,yes,30,0,0,0,0,0,0,0,0,,,,,,,,,,,,,,,,,,,,,,,,,,,,,,,,,,,,,,,,,,,,,,,,,,,,,,,,,,,,,,,,,,,,,,,,,,,,,,,,,,,,,,,,,,,,,,,,,,,,,p_8,001,2024-05-08_16h23.28.241,speech_rate,2023.2.3,None,2024-05-08 16h23.40.947520 -0700,
1,Someday_trial_condition.wav,Someday__Someday__Maybe__Unabridged___File_069_of_116_3.wav,It's a gut feeling You can't nickname him He's a real person not a joke person You don't have to tell me Only a real person would try to shake hands with my best friend's foot Jane you're not explaining it right It was very romantic And thankfully our steaming bowl of bright yellow melted cheese with flecks of green chilies arrives Listen she says dipping a chip into the creamy depths You're the one with the brand new personality I'm still the same old Jane,"What does the narrator have, according to Jane?",A) A new recipe for dipping sauce,B) A new personality,C) A new restaurant suggestion,D) A new pair of shoes,B) A new personality,yes,30,0,0,0,0,,,,,,,,,,,,,,,,,,,,,,,,,,,,,,,,,,,,,,,,,,,,,,,,,,,,,,,,,,,,,,,,,359.7487347080005,374.7595088329999,0,,,1,14.989676582999891,14.98967950000042,0,,,0,,,,,,,,,,,,,,,,,,,,,,,,,,,,,p_8,001,2024-05-08_16h23.28.241,speech_rate,2023.2.3,None,2024-05-08 16h23.40.947520 -0700,
2,Someday_trial_condition-5x.wav,Someday__Someday__Maybe__Unabridged___File_103_of_116_1.wav,Isn't halfway where two people usually meet Well in general maybe But tonight this is sort of a big deal for me It's my night I'm not sure you you don't think I get it Well no I mean how could you I'm having trouble making sense of this conversation James is speaking with authority but there's something wrong Something feels so wrong somehow I don't care about waving and smiling and having my picture taken with him,"How does James speak, according to the narrator?",A) With compassion,B) With grief,C) With hesitation,D) With authority,D) With authority,yes,6.2,0,1,1,1,0,0,0,0,0,0,0,0,,,,,,,,,,,,,390.6767939580004,,,,,,,374.76030408299994,374.769419708,374.769419708,374.769419708,377.86477820800064,1,[3.100846207998984],[3.1008488749994285],377.8649653749999,377.8805792496662,377.8768354170006,384.07780583299973,384.06018804199994,384.0713654579995,384.3333250830001,384.3333250830001,387.6752813330004,388.5099311670001,1,3.5759703749990877,1,[0.8476154999989376],[0.8476179589997628],388.5104709999996,388.51531862499905,390.6633254999997,1,[2.152148166000188],[2.1521581659999356],390.6641102499998,390.6767939580004,390.6767939580004,394.3268015829999,,1,[3.6584539159994165],[3.6584569999995438],,,,,,,,,,,,,,,,,,,,,,,,,,,,,,,,,,,,,,,,,p_8,001,2024-05-08_16h23.28.241,speech_rate,2023.2.3,None,2024-05-08 16h23.40.947520 -0700,
2,Someday_trial_condition-5x.wav,Someday__Someday__Maybe__Unabridged___File_103_of_116_1.wav,Isn't halfway where two people usually meet Well in general maybe But tonight this is sort of a big deal for me It's my night I'm not sure you you don't think I get it Well no I mean how could you I'm having trouble making sense of this conversation James is speaking with authority but there's something wrong Something feels so wrong somehow I don't care about waving and smiling and having my picture taken with him,"How does James speak, according to the narrator?",A) With compassion,B) With grief,C) With hesitation,D) With authority,D) With authority,yes,6.2,0,1,1,1,0,0,0,0,,,,,,,,,,,,,,,,,,,,,,,,,,,,,,,,,,,,,,,,,,,,,,,,,,,,,,,,,,,,,,,,,,,,,,,,,,,,,,,,,,,,,,,,,,,,,,,,,,,,,p_8,001,2024-05-08_16h23.28.241,speech_rate,2023.2.3,None,2024-05-08 16h23.40.947520 -0700,
2,Someday_trial_condition-5x.wav,Someday__Someday__Maybe__Unabridged___File_103_of_116_1.wav,Isn't halfway where two people usually meet Well in general maybe But tonight this is sort of a big deal for me It's my night I'm not sure you you don't think I get it Well no I mean how could you I'm having trouble making sense of this conversation James is speaking with authority but there's something wrong Something feels so wrong somehow I don't care about waving and smiling and having my picture taken with him,"How does James speak, according to the narrator?",A) With compassion,B) With grief,C) With hesitation,D) With authority,D) With authority,yes,6.2,0,1,1,1,,,,,,,,,,,,,,,,,,,,,,,,,,,,,,,,,,,,,,,,,,,,,,,,,,,,,,,,,,,,,,,,,394.3272469580006,402.8269196250003,0,,,1,8.489409083000282,8.489412333001383,0,,,0,,,,,,,,,,,,,,,,,,,,,,,,,,,,,p_8,001,2024-05-08_16h23.28.241,speech_rate,2023.2.3,None,2024-05-08 16h23.40.947520 -0700,
,Someday_92_condition-3x.wav,Someday__Someday__Maybe__Unabridged___File_040_of_116_1.wav,The chair I'm using is a cushiony office chair with wheels and I become aware about halfway through the monologue that I've been sort of sliding back and forth in it the chair with wheels equivalent of pacing I steady my feet on the floor and command myself to stop moving which causes me to forget my next line Shit I've totally lost my place I pause trying to stay in character I look out the window as though I'm she's having an important thought If I relax it will come to me If I panic it will not That's what I've learned in class,Why does the narrator look out the window during the monologue?,A. To take the agent's attention,B. To stay in character and find the next line,C. To see something interesting,D. To distract herself,B. To stay in character and find the next line,yes,11.38125,,,,,,,,,,,,,0,0,0,0,0,0,0,0,0,0,0,0,448.23153354200076,,,,,,,,,,,,,,,429.99447158300063,430.0099248746667,430.0129028749998,441.3849705829998,441.39700062500015,441.4082190829995,441.6174103329995,441.6174103329995,443.58429862499906,445.5742736249995,5.041666666666667,2.1516355000003387,1,[1.9992347089992109],[1.999236875000861],,,,,,,448.2204721670005,448.23153354200076,448.23153354200076,474.99888720799936,"She mentioned looking out a window, and that if she panicks she will not remember ",1,[26.775367207999807],[26.77537058300004],,,,,,,,,,,,,,,402.8273047500006,402.83276820799983,402.83276820799983,427.45073237500037,1,[24.62278229200092],[24.622785208001005],427.4964258330001,427.50726891699924,427.50726891699924,427.50726891699924,429.9941233749996,1,[2.4944591250005033],[2.4944617920009478],445.5749789170004,445.5807654580003,448.21966608299954,1,[2.6440172080001503],[2.6440200000015466],,,,,,p_8,001,2024-05-08_16h23.28.241,speech_rate,2023.2.3,None,2024-05-08 16h23.40.947520 -0700,
,Someday_92_condition-3x.wav,Someday__Someday__Maybe__Unabridged___File_040_of_116_1.wav,The chair I'm using is a cushiony office chair with wheels and I become aware about halfway through the monologue that I've been sort of sliding back and forth in it the chair with wheels equivalent of pacing I steady my feet on the floor and command myself to stop moving which causes me to forget my next line Shit I've totally lost my place I pause trying to stay in character I look out the window as though I'm she's having an important thought If I relax it will come to me If I panic it will not That's what I've learned in class,Why does the narrator look out the window during the monologue?,A. To take the agent's attention,B. To stay in character and find the next line,C. To see something interesting,D. To distract herself,B. To stay in character and find the next line,yes,11.38125,,,,,,,,,,,,,0,0,0,0,0,0,0,0,,,,,,,,,,,,,,,,,,,,,,,,,,,,,,,,,,,,,,,,,,,,,,,,,,,,,,,,,,,,,,,,,,,,,,,,,,,,,,,,,,,,,,,,,p_8,001,2024-05-08_16h23.28.241,speech_rate,2023.2.3,None,2024-05-08 16h23.40.947520 -0700,
,Someday_92_condition-3x.wav,Someday__Someday__Maybe__Unabridged___File_040_of_116_1.wav,The chair I'm using is a cushiony office chair with wheels and I become aware about halfway through the monologue that I've been sort of sliding back and forth in it the chair with wheels equivalent of pacing I steady my feet on the floor and command myself to stop moving which causes me to forget my next line Shit I've totally lost my place I pause trying to stay in character I look out the window as though I'm she's having an important thought If I relax it will come to me If I panic it will not That's what I've learned in class,Why does the narrator look out the window during the monologue?,A. To take the agent's attention,B. To stay in character and find the next line,C. To see something interesting,D. To distract herself,B. To stay in character and find the next line,yes,11.38125,,,,,,,,,,,,,0,0,0,0,,,,,,,,,,,,,,,,,,,,,,,,,,,,,,,,,,,,,,,,,,,,,,,,,,,,,474.999345582999,483.5822516249991,0,,,1,8.570723541999541,8.57072637499914,0,,,0,,,,,,,,,,,,,,,,,,,,,,,,,,,,,p_8,001,2024-05-08_16h23.28.241,speech_rate,2023.2.3,None,2024-05-08 16h23.40.947520 -0700,
,Someday_123_condition-4x.wav,Someday__Someday__Maybe__Unabridged___File_054_of_116_3.wav,I'll admit it's sort of a sick relationship to have with someone who is hardly in your life Lisa doesn't come on until noon and I'm regularly sleeping until then now because there's no reason to get up any earlier Jane is treating it as a big deal as if there's something really wrong with me She calls me from work every day just to make sure I get up I'm worried about you You're depressed I'm fine My roommate Francis Farmer Jane says melodramatically I'm a sensitive creative type I'm going through something,Why does Jane call the narrator character every day?,A. To share gossip,B. To check if the main character is awake,C. To discuss their favorite TV shows,D. To offer emotional support,B. To check if the main character is awake,no,7.54,,,,,,,,,,,,,0,1,1,1,,,,,,,,,483.59010599999965,,,,,,,,,,,,,,,488.73984675000065,488.7558482916668,488.75303970799905,496.28866412500065,496.30018154199934,496.31144470800064,496.5723789170006,496.5723789170006,499.22038195799905,500.0768467079997,1.958333333333333,2.884972416999517,1,[0.8656877920002444],[0.8656906670003082],,,,,,,,,,,,,,,500.07727929199973,506.52406150000024,0,,,0,,,0,,,1,6.437512041000446,6.437514583001757,,,,,,,,483.5833528330004,483.59010599999965,483.59010599999965,483.59010599999965,488.7396597499992,1,[5.154824749999534],[5.154827291000402],,,,,,,,,,,,p_8,001,2024-05-08_16h23.28.241,speech_rate,2023.2.3,None,2024-05-08 16h23.40.947520 -0700,
,Someday_86_condition-2x.wav,Someday__Someday__Maybe__Unabridged___File_038_of_116_2.wav,We need a better mirror in Brooklyn I realize a proper full length one that doesn't require me to stand on the toilet to see my lower half Maybe this explains why I haven't gotten more jobs I've only seen either my upper or my lower self I haven't seen the whole thing all at once in a long time Maybe my upper lower unity is not what I thought it was Regardless I should have bought a new outfit for this meeting in a store with a full length mirror I need a full length mirror I need new clothes I need a longer skirt I should go back to Brooklyn and change,What realization does the narrator have about her need for a better mirror?,A. She needs a mirror in her bathroom,B. She should buy a full-length mirror,C. She should move to Brooklyn,D. She needs new boots,B. She should buy a full-length mirror,yes,14.58,,,,,,,,,,,,,0,2,2,2,0,0,0,0,0,0,0,0,530.2340925000008,,,,,,,,,,,,,,,510.7670025000007,510.7992936663327,510.788026541999,525.355840958,525.3855784169991,525.3959217499996,525.6045095419995,525.6045095419995,527.5350810830005,528.2518693330003,8.958333333333334,2.1140944590006256,1,[0.7262881659989944],[0.7262906249998196],,,,,,,530.2197784580003,530.2340925000008,530.2340925000008,560.2198883330002,"Th narrator is complaining baout her mirror, and that she can not see both halves of herself. She mentions going back to broklyn and ",0,,,,,,,,,,,,,,,,,,,,,,,,506.5245195419993,506.5309115,506.5309115,506.5309115,510.76681775,1,[4.241008208000494],[4.241010917001404],528.2523889580007,528.2570528750002,530.2190353330006,1,[1.9662292089997209],[1.9662321670002711],560.2421625829993,560.2421625829993,,,,p_8,001,2024-05-08_16h23.28.241,speech_rate,2023.2.3,None,2024-05-08 16h23.40.947520 -0700,
,Someday_86_condition-2x.wav,Someday__Someday__Maybe__Unabridged___File_038_of_116_2.wav,We need a better mirror in Brooklyn I realize a proper full length one that doesn't require me to stand on the toilet to see my lower half Maybe this explains why I haven't gotten more jobs I've only seen either my upper or my lower self I haven't seen the whole thing all at once in a long time Maybe my upper lower unity is not what I thought it was Regardless I should have bought a new outfit for this meeting in a store with a full length mirror I need a full length mirror I need new clothes I need a longer skirt I should go back to Brooklyn and change,What realization does the narrator have about her need for a better mirror?,A. She needs a mirror in her bathroom,B. She should buy a full-length mirror,C. She should move to Brooklyn,D. She needs new boots,B. She should buy a full-length mirror,yes,14.58,,,,,,,,,,,,,0,2,2,2,0,0,0,0,,,,,,,,,,,,,,,,,,,,,,,,,,,,,,,,,,,,,,,,,,,,,,,,,,,,,,,,,,,,,,,,,,,,,,,,,,,,,,,,,,,,,,,,,p_8,001,2024-05-08_16h23.28.241,speech_rate,2023.2.3,None,2024-05-08 16h23.40.947520 -0700,
,Someday_86_condition-2x.wav,Someday__Someday__Maybe__Unabridged___File_038_of_116_2.wav,We need a better mirror in Brooklyn I realize a proper full length one that doesn't require me to stand on the toilet to see my lower half Maybe this explains why I haven't gotten more jobs I've only seen either my upper or my lower self I haven't seen the whole thing all at once in a long time Maybe my upper lower unity is not what I thought it was Regardless I should have bought a new outfit for this meeting in a store with a full length mirror I need a full length mirror I need new clothes I need a longer skirt I should go back to Brooklyn and change,What realization does the narrator have about her need for a better mirror?,A. She needs a mirror in her bathroom,B. She should buy a full-length mirror,C. She should move to Brooklyn,D. She needs new boots,B. She should buy a full-length mirror,yes,14.58,,,,,,,,,,,,,0,2,2,2,,,,,,,,,,,,,,,,,,,,,,,,,,,,,,,,,,,,,,,,,,,,,,,,,,,,,560.2203177079991,573.0963726669997,0,,,0,,,1,12.863968208999722,12.86397124999894,0,,,,,,,,,,,,,,,,,,,,,,,,,,,,,p_8,001,2024-05-08_16h23.28.241,speech_rate,2023.2.3,None,2024-05-08 16h23.40.947520 -0700,
,Someday_24_condition-5x.wav,Someday__Someday__Maybe__Unabridged___File_015_of_116_0.wav,Thanks I say and then for no reason Any adjustments Stupid stupid Don't ask to do it again when you don't know what you did in the first place They both cock their heads at the same angle like two puppies in a pet store window Then they nod to each other again Sure yeah let's do one more just for kicks Yeah I mean that was great but let's in this one really have fun with it but also take it seriously like you did Yeah serious but fun like you're talking to your best friend Yeah like you're sharing a secret with your best friend,What do the casting directors suggest after the narrator's audition?,A. They compliment her performance,B. They ask her to do it in a more fun but serious way,C. They reject her immediately,D. They offer her the role,B. They ask her to do it in a more fun but serious way,yes,5.98,,,,,,,,,,,,,0,3,3,3,0,0,0,0,0,0,0,0,585.9203357499991,,,,,,,,,,,,,,,575.4603675830003,575.4763470416658,575.4723950000007,581.4403653329991,581.4579394169996,581.4691824580004,581.7343198750004,581.7343198750004,583.1467659169994,583.8171604170002,1.4416666666666664,1.6507503329994506,1,[0.6792381670002214],[0.6792407920002006],,,,,,,585.8926715420002,585.9203357499991,585.9203357499991,587.8277552079999,,1,[1.9320380839999416],[1.9320408339990536],,,,,,,,,,,,,,,,,,,,,,573.0969232499992,573.1029131249998,573.1029131249998,573.1029131249998,575.4601779170007,1,[2.3628489580005407],[2.3628516250009852],583.8177285420006,583.822297499999,585.8920538750008,1,[2.0739057089995185],[2.073908416999984],,,,,,p_8,001,2024-05-08_16h23.28.241,speech_rate,2023.2.3,None,2024-05-08 16h23.40.947520 -0700,
,Someday_24_condition-5x.wav,Someday__Someday__Maybe__Unabridged___File_015_of_116_0.wav,Thanks I say and then for no reason Any adjustments Stupid stupid Don't ask to do it again when you don't know what you did in the first place They both cock their heads at the same angle like two puppies in a pet store window Then they nod to each other again Sure yeah let's do one more just for kicks Yeah I mean that was great but let's in this one really have fun with it but also take it seriously like you did Yeah serious but fun like you're talking to your best friend Yeah like you're sharing a secret with your best friend,What do the casting directors suggest after the narrator's audition?,A. They compliment her performance,B. They ask her to do it in a more fun but serious way,C. They reject her immediately,D. They offer her the role,B. They ask her to do it in a more fun but serious way,yes,5.98,,,,,,,,,,,,,0,3,3,3,0,0,0,0,,,,,,,,,,,,,,,,,,,,,,,,,,,,,,,,,,,,,,,,,,,,,,,,,,,,,,,,,,,,,,,,,,,,,,,,,,,,,,,,,,,,,,,,,p_8,001,2024-05-08_16h23.28.241,speech_rate,2023.2.3,None,2024-05-08 16h23.40.947520 -0700,
,Someday_24_condition-5x.wav,Someday__Someday__Maybe__Unabridged___File_015_of_116_0.wav,Thanks I say and then for no reason Any adjustments Stupid stupid Don't ask to do it again when you don't know what you did in the first place They both cock their heads at the same angle like two puppies in a pet store window Then they nod to each other again Sure yeah let's do one more just for kicks Yeah I mean that was great but let's in this one really have fun with it but also take it seriously like you did Yeah serious but fun like you're talking to your best friend Yeah like you're sharing a secret with your best friend,What do the casting directors suggest after the narrator's audition?,A. They compliment her performance,B. They ask her to do it in a more fun but serious way,C. They reject her immediately,D. They offer her the role,B. They ask her to do it in a more fun but serious way,yes,5.98,,,,,,,,,,,,,0,3,3,3,,,,,,,,,,,,,,,,,,,,,,,,,,,,,,,,,,,,,,,,,,,,,,,,,,,,,587.8281329170004,595.7316032920007,0,,,1,7.89355387499927,7.893556916998932,0,,,0,,,,,,,,,,,,,,,,,,,,,,,,,,,,,p_8,001,2024-05-08_16h23.28.241,speech_rate,2023.2.3,None,2024-05-08 16h23.40.947520 -0700,
,Someday_5_condition-2x.wav,Someday__Someday__Maybe__Unabridged___File_005_of_116_4.wav,I am late Frank is the neighbor whose apartment we can see into from the windows in the back of our brownstone Frank leads a mysterious solitary life but one you can set a clock by He rises at eight sits in front of a computer from nine to one goes out and gets a sandwich is back at the computer from two until six thirty is gone from six thirty to eight and then watches TV from eight until eleven p m after which he goes promptly to sleep The schedule never changes No one ever comes over,"Who is Frank, and what is his daily routine?","A. Frank is the narrator's neighbor, and he works from home.","B. Frank is the narrator's roommate, and he works from home.","C. Frank is the narrator's friend, and he enjoys watching TV all day.","D. Frank is the narrator's landlord, and he travels frequently.","A. Frank is the narrator's neighbor, and he works from home.",yes,14.88503125,,,,,,,,,,,,,0,4,4,4,0,0,0,0,0,0,0,0,617.3419016249991,,,,,,,,,,,,,,,597.8885692080003,597.9045992086669,597.9084453750002,612.789042082999,612.7931007499992,612.8144607499999,613.0265957079991,613.0265957079991,615.3933929579998,616.3620351249992,9.941666666666666,2.5549965419995715,1,[0.9778601669986529],[0.9778625830003875],,,,,,,617.3318128329993,617.3419016249991,617.3419016249991,643.1155617080003,"Her neighbor frank who leads a very monatonous, scheduled life and rarely has any visitors",1,[25.780688667000504],[25.78069216699987],,,,,,,,,,,,,,,,,,,,,,595.7321424999991,595.7396245830005,595.7396245830005,595.7396245830005,597.8883736669995,1,[2.1543136250002135],[2.1543162090001715],616.3625547499996,616.3713429170002,617.3310352080007,1,[0.9679734999990615],[0.9679765410000982],,,,,,p_8,001,2024-05-08_16h23.28.241,speech_rate,2023.2.3,None,2024-05-08 16h23.40.947520 -0700,
,Someday_5_condition-2x.wav,Someday__Someday__Maybe__Unabridged___File_005_of_116_4.wav,I am late Frank is the neighbor whose apartment we can see into from the windows in the back of our brownstone Frank leads a mysterious solitary life but one you can set a clock by He rises at eight sits in front of a computer from nine to one goes out and gets a sandwich is back at the computer from two until six thirty is gone from six thirty to eight and then watches TV from eight until eleven p m after which he goes promptly to sleep The schedule never changes No one ever comes over,"Who is Frank, and what is his daily routine?","A. Frank is the narrator's neighbor, and he works from home.","B. Frank is the narrator's roommate, and he works from home.","C. Frank is the narrator's friend, and he enjoys watching TV all day.","D. Frank is the narrator's landlord, and he travels frequently.","A. Frank is the narrator's neighbor, and he works from home.",yes,14.88503125,,,,,,,,,,,,,0,4,4,4,0,0,0,0,,,,,,,,,,,,,,,,,,,,,,,,,,,,,,,,,,,,,,,,,,,,,,,,,,,,,,,,,,,,,,,,,,,,,,,,,,,,,,,,,,,,,,,,,p_8,001,2024-05-08_16h23.28.241,speech_rate,2023.2.3,None,2024-05-08 16h23.40.947520 -0700,
,Someday_5_condition-2x.wav,Someday__Someday__Maybe__Unabridged___File_005_of_116_4.wav,I am late Frank is the neighbor whose apartment we can see into from the windows in the back of our brownstone Frank leads a mysterious solitary life but one you can set a clock by He rises at eight sits in front of a computer from nine to one goes out and gets a sandwich is back at the computer from two until six thirty is gone from six thirty to eight and then watches TV from eight until eleven p m after which he goes promptly to sleep The schedule never changes No one ever comes over,"Who is Frank, and what is his daily routine?","A. Frank is the narrator's neighbor, and he works from home.","B. Frank is the narrator's roommate, and he works from home.","C. Frank is the narrator's friend, and he enjoys watching TV all day.","D. Frank is the narrator's landlord, and he travels frequently.","A. Frank is the narrator's neighbor, and he works from home.",yes,14.88503125,,,,,,,,,,,,,0,4,4,4,,,,,,,,,,,,,,,,,,,,,,,,,,,,,,,,,,,,,,,,,,,,,,,,,,,,,643.1160326669997,652.1007826669993,1,8.97142254100072,8.971425083000213,0,,,0,,,0,,,,,,,,,,,,,,,,,,,,,,,,,,,,,p_8,001,2024-05-08_16h23.28.241,speech_rate,2023.2.3,None,2024-05-08 16h23.40.947520 -0700,
,Someday_26_condition-4x.wav,Someday__Someday__Maybe__Unabridged___File_015_of_116_2.wav,My stomach lurches The action between each line is the exact opposite of what the line is After kids are my number one priority it says rushing mom gets daughter to school just as the bell is ringing After the thing about always having time for friends looks at answering machine guiltily and decides to screen the call At the end the harried housewife stuffs an impossible amount of dirty clothes in the washer which miraculously come out clean and she gets a huge hug from her approving husband,What is the narrator's reaction to the script she's reading?,A. Her stomach lurches,B. She finds it amusing,C. She feels inspired,D. She is moved to tears,A. Her stomach lurches,yes,6.9725,,,,,,,,,,,,,0,5,5,5,0,0,0,0,0,0,0,0,666.3581730000005,,,,,,,,,,,,,,,654.2104855420002,654.2247306246666,654.2244489170007,661.1922935000002,661.2100569579998,661.2212727499991,661.4814059170003,661.4814059170003,663.7071292500004,664.3816236250004,2.866666666666667,2.4591606670001056,1,[0.6858514579998882],[0.6858537499992963],,,,,,,666.3466184999997,666.3581730000005,666.3581730000005,677.516601542,"Something about cleaning, and someone's husband",1,[11.16675029200087],[11.166753834000701],,,,,,,,,,,,,,,,,,,,,,652.1013034999996,652.1085301669991,652.1085301669991,652.1085301669991,654.2102400000003,1,[2.1070574580007815],[2.107060917000126],664.3821063750001,664.3907852499997,666.3457859579994,1,[1.9627501670001948],[1.9627590840009361],,,,,,p_8,001,2024-05-08_16h23.28.241,speech_rate,2023.2.3,None,2024-05-08 16h23.40.947520 -0700,
,Someday_26_condition-4x.wav,Someday__Someday__Maybe__Unabridged___File_015_of_116_2.wav,My stomach lurches The action between each line is the exact opposite of what the line is After kids are my number one priority it says rushing mom gets daughter to school just as the bell is ringing After the thing about always having time for friends looks at answering machine guiltily and decides to screen the call At the end the harried housewife stuffs an impossible amount of dirty clothes in the washer which miraculously come out clean and she gets a huge hug from her approving husband,What is the narrator's reaction to the script she's reading?,A. Her stomach lurches,B. She finds it amusing,C. She feels inspired,D. She is moved to tears,A. Her stomach lurches,yes,6.9725,,,,,,,,,,,,,0,5,5,5,0,0,0,0,,,,,,,,,,,,,,,,,,,,,,,,,,,,,,,,,,,,,,,,,,,,,,,,,,,,,,,,,,,,,,,,,,,,,,,,,,,,,,,,,,,,,,,,,p_8,001,2024-05-08_16h23.28.241,speech_rate,2023.2.3,None,2024-05-08 16h23.40.947520 -0700,
,Someday_26_condition-4x.wav,Someday__Someday__Maybe__Unabridged___File_015_of_116_2.wav,My stomach lurches The action between each line is the exact opposite of what the line is After kids are my number one priority it says rushing mom gets daughter to school just as the bell is ringing After the thing about always having time for friends looks at answering machine guiltily and decides to screen the call At the end the harried housewife stuffs an impossible amount of dirty clothes in the washer which miraculously come out clean and she gets a huge hug from her approving husband,What is the narrator's reaction to the script she's reading?,A. Her stomach lurches,B. She finds it amusing,C. She feels inspired,D. She is moved to tears,A. Her stomach lurches,yes,6.9725,,,,,,,,,,,,,0,5,5,5,,,,,,,,,,,,,,,,,,,,,,,,,,,,,,,,,,,,,,,,,,,,,,,,,,,,,677.5170899580007,682.9598604170005,0,,,1,5.433406915999512,5.433409666000443,0,,,0,,,,,,,,,,,,,,,,,,,,,,,,,,,,,p_8,001,2024-05-08_16h23.28.241,speech_rate,2023.2.3,None,2024-05-08 16h23.40.947520 -0700,
,Someday_94_condition-3x.wav,Someday__Someday__Maybe__Unabridged___File_041_of_116_1.wav,He doesn't say anything so I feel obligated to keep going It's as if I'm not driving this train anymore I'm just holding on trying not to crash completely I've always loved the theater I say Thank God It isn't original but it's TRUE at least My dad would take me when I was a kid to whatever little show was playing in our town in Connecticut and we'd also see most of what was in New Haven and sometimes we'd come into the city and it wasn't just theater It was ballet and music and modern dance too I pause,What is the narrator's childhood connection to the theater?,A. She used to perform in school plays,B. Her father would take her to various shows,C. She always dreamed of becoming an actor,D. She was part of a local theater group,B. Her father would take her to various shows,no,11.22375,,,,,,,,,,,,,0,6,6,6,,,,,,,,,682.9677582919994,,,,,,,,,,,,,,,684.8943708330007,684.9095913336662,684.9104279170006,696.1269882079996,696.1338301249998,696.1442577920006,696.3679554999999,696.3679554999999,699.2320054169995,699.9228417920003,8.966666666666667,3.0636986250010523,1,[0.7001174170000013],[0.700119832999917],,,,,,,,,,,,,,,699.923283832999,708.1602057079999,0,,,1,8.227983917000529,8.227986333000445,0,,,0,,,,,,,,,,682.96037875,682.9677582919994,682.9677582919994,682.9677582919994,684.8939059580007,1,[1.9314972080010193],[1.931500374999814],,,,,,,,,,,,p_8,001,2024-05-08_16h23.28.241,speech_rate,2023.2.3,None,2024-05-08 16h23.40.947520 -0700,
,Someday_16_condition.wav,Someday__Someday__Maybe__Unabridged___File_010_of_116_0.wav,When he tries to describe the story to me I find myself counting the planks in our floor weighing the merits of vegetable versus scallion cream cheese But I'm sure it's better than it sounds How's my hair I'm taking an apartment wide poll for some reason this time my question is accompanied by a weird sort of tap step Flourish in order to sell it I hate myself I must be stopped Big he says hopefully huh,What does the narrator do while the person describes the story to her?,A. Counts the planks in the floor,B. Weighs the merits of cream cheese,C. Dances a tap step,D. Flips her hair dramatically,A. Counts the planks in the floor,no,27.53003125,,,,,,,,,,,,,0,7,7,7,,,,,,,,,708.167088917,,,,,,,,,,,,,,,710.8793334170005,710.9112640003336,710.9105639999998,738.4354761249997,738.4473789170006,738.469003582999,738.6695654579999,738.6695654579999,741.8454729580008,742.5687362499993,9.991666666666665,3.3485853750007664,1,[0.7360681660011323],[0.7360705410010269],,,,,,,,,,,,,,,742.5691812919995,749.8458985420002,0,,,1,7.2679465410001285,7.267948957998669,0,,,0,,,,,,,,,,708.1606659999998,708.167088917,708.167088917,708.167088917,710.8790932499996,1,[2.7165847910000593],[2.716587749999235],,,,,,,,,,,,p_8,001,2024-05-08_16h23.28.241,speech_rate,2023.2.3,None,2024-05-08 16h23.40.947520 -0700,
,Someday_90_condition-3x.wav,Someday__Someday__Maybe__Unabridged___File_039_of_116_3.wav,There are so many to choose from I wonder if this is part of the audition and the chairs are a test I wonder if I'm being watched on a hidden camera I wonder if I should be worried about the alarming frequency that the concept of being watched on a hidden camera occurs to me But if I were being watched what chair would the people sitting behind the monitor in the hidden control room consider the right one Does Absolute Artists work only with people who choose to sit at the head of the table Does that say I'm a star Is that the kind of boldness they're looking for,Why does the narrator wonder if the chairs are part of the audition?,A. She thinks the chairs are being watched,B. She believes the chairs are a test,C. She wants to find the right chair to sit in,D. All of the above,D. All of the above,yes,11.14125,,,,,,,,,,,,,0,8,8,8,0,0,0,0,0,0,0,0,768.2692171250001,,,,,,,,,,,,,,,752.4145462079996,752.4301129996659,752.4301457500005,763.5680405000003,763.5730846669994,763.5843085830002,763.7880545000007,763.7880545000007,766.108895542,766.9977664580001,9.058333333333334,2.6197025000001304,1,[0.899218042000939],[0.8992202500012354],,,,,,,768.2582180419995,768.2692171250001,768.2692171250001,798.1680805420001,"The narrator is in an audition, and worries she is being watched by hidden cameras. She wonders which seat at the table she should take",1,[29.906773583999893],[29.906777000000147],,,,,,,,,,,,,,,,,,,,,,749.8463699170006,749.8512730420007,749.8512730420007,749.8512730420007,752.4143151249991,1,[2.5675427919995855],[2.5675454169995646],766.998258874999,767.0028667499992,768.2573985420004,1,[1.2586379580006906],[1.2586407079998025],,,,,,p_8,001,2024-05-08_16h23.28.241,speech_rate,2023.2.3,None,2024-05-08 16h23.40.947520 -0700,
,Someday_90_condition-3x.wav,Someday__Someday__Maybe__Unabridged___File_039_of_116_3.wav,There are so many to choose from I wonder if this is part of the audition and the chairs are a test I wonder if I'm being watched on a hidden camera I wonder if I should be worried about the alarming frequency that the concept of being watched on a hidden camera occurs to me But if I were being watched what chair would the people sitting behind the monitor in the hidden control room consider the right one Does Absolute Artists work only with people who choose to sit at the head of the table Does that say I'm a star Is that the kind of boldness they're looking for,Why does the narrator wonder if the chairs are part of the audition?,A. She thinks the chairs are being watched,B. She believes the chairs are a test,C. She wants to find the right chair to sit in,D. All of the above,D. All of the above,yes,11.14125,,,,,,,,,,,,,0,8,8,8,0,0,0,0,,,,,,,,,,,,,,,,,,,,,,,,,,,,,,,,,,,,,,,,,,,,,,,,,,,,,,,,,,,,,,,,,,,,,,,,,,,,,,,,,,,,,,,,,p_8,001,2024-05-08_16h23.28.241,speech_rate,2023.2.3,None,2024-05-08 16h23.40.947520 -0700,
,Someday_90_condition-3x.wav,Someday__Someday__Maybe__Unabridged___File_039_of_116_3.wav,There are so many to choose from I wonder if this is part of the audition and the chairs are a test I wonder if I'm being watched on a hidden camera I wonder if I should be worried about the alarming frequency that the concept of being watched on a hidden camera occurs to me But if I were being watched what chair would the people sitting behind the monitor in the hidden control room consider the right one Does Absolute Artists work only with people who choose to sit at the head of the table Does that say I'm a star Is that the kind of boldness they're looking for,Why does the narrator wonder if the chairs are part of the audition?,A. She thinks the chairs are being watched,B. She believes the chairs are a test,C. She wants to find the right chair to sit in,D. All of the above,D. All of the above,yes,11.14125,,,,,,,,,,,,,0,8,8,8,,,,,,,,,,,,,,,,,,,,,,,,,,,,,,,,,,,,,,,,,,,,,,,,,,,,,798.1685596669995,805.5511658329997,0,,,1,7.372274999999718,7.372286583000459,0,,,0,,,,,,,,,,,,,,,,,,,,,,,,,,,,,p_8,001,2024-05-08_16h23.28.241,speech_rate,2023.2.3,None,2024-05-08 16h23.40.947520 -0700,
,Someday_34_condition-5x.wav,Someday__Someday__Maybe__Unabridged___File_019_of_116_2.wav,Who falls on stage wearing nothing but a bathrobe Why Why Why Why The monologue was going so well too or at least I think it was I'm not sure of anything now The audience seemed to be laughing in all the right places That's actually what threw me I think Their laughter threw my whole rhythm off having to wait until it died down before I could continue But still it was all okay until I tried to sit down The stage was just so dark and the lights were in my eyes,What disrupted the narrator's monologue performance?,A. The audience's laughter,B. The noise from the backstage,C. The unexpected props,D. The malfunctioning lights,A. The audience's laughter,yes,6.034,,,,,,,,,,,,,0,9,9,9,0,0,0,0,0,0,0,0,819.730238958,,,,,,,,,,,,,,,807.2678977920004,807.2834879996665,807.2787832079994,813.3173442919997,813.3189647920008,813.3301780000002,813.5975332920007,813.5975332920007,817.4569853329995,818.1525965000001,2.5250000000000004,4.101360124999701,1,[0.7052055409985769],[0.7052084159986407],,,,,,,819.7189524999994,819.730238958,819.730238958,845.1604005419995,"the narrator asks "why why why", and closes her eyes",1,[25.438408084000912],[25.438411167000595],,,,,,,,,,,,,,,,,,,,,,805.5516924170006,805.559214375,805.559214375,805.559214375,807.2676784579999,1,[1.7139933329999621],[1.7139961249995395],818.1531879579998,818.1581307079996,819.7181622499993,1,[1.564517541000896],[1.5645202080013405],,,,,,p_8,001,2024-05-08_16h23.28.241,speech_rate,2023.2.3,None,2024-05-08 16h23.40.947520 -0700,
,Someday_34_condition-5x.wav,Someday__Someday__Maybe__Unabridged___File_019_of_116_2.wav,Who falls on stage wearing nothing but a bathrobe Why Why Why Why The monologue was going so well too or at least I think it was I'm not sure of anything now The audience seemed to be laughing in all the right places That's actually what threw me I think Their laughter threw my whole rhythm off having to wait until it died down before I could continue But still it was all okay until I tried to sit down The stage was just so dark and the lights were in my eyes,What disrupted the narrator's monologue performance?,A. The audience's laughter,B. The noise from the backstage,C. The unexpected props,D. The malfunctioning lights,A. The audience's laughter,yes,6.034,,,,,,,,,,,,,0,9,9,9,0,0,0,0,,,,,,,,,,,,,,,,,,,,,,,,,,,,,,,,,,,,,,,,,,,,,,,,,,,,,,,,,,,,,,,,,,,,,,,,,,,,,,,,,,,,,,,,,p_8,001,2024-05-08_16h23.28.241,speech_rate,2023.2.3,None,2024-05-08 16h23.40.947520 -0700,
,Someday_34_condition-5x.wav,Someday__Someday__Maybe__Unabridged___File_019_of_116_2.wav,Who falls on stage wearing nothing but a bathrobe Why Why Why Why The monologue was going so well too or at least I think it was I'm not sure of anything now The audience seemed to be laughing in all the right places That's actually what threw me I think Their laughter threw my whole rhythm off having to wait until it died down before I could continue But still it was all okay until I tried to sit down The stage was just so dark and the lights were in my eyes,What disrupted the narrator's monologue performance?,A. The audience's laughter,B. The noise from the backstage,C. The unexpected props,D. The malfunctioning lights,A. The audience's laughter,yes,6.034,,,,,,,,,,,,,0,9,9,9,,,,,,,,,,,,,,,,,,,,,,,,,,,,,,,,,,,,,,,,,,,,,,,,,,,,,845.1608625829995,859.9938192919999,1,14.823862834000465,14.823865374999514,0,,,0,,,0,,,,,,,,,,,,,,,,,,,,,,,,,,,,,p_8,001,2024-05-08_16h23.28.241,speech_rate,2023.2.3,None,2024-05-08 16h23.40.947520 -0700,
,Someday_79_condition-5x.wav,Someday__Someday__Maybe__Unabridged___File_036_of_116_1.wav,But something is holding me back It would be so easy to say yes and leave this room with an agent almost too easy I Look around the room and the walls of old scripts and playbills that seemed warm and friendly when I first came in Now look cluttered and shabby the leather on the arms of this giant lumpy chair is worn thin The stuffing is peeking through one of the seams and the sunlight streaming through the window is cloudy with dust I stammer a bit,What is one of the factors that is preventing the narrator from immediately accepting the agent's offer?,A. The agent's appearance,B. The condition of the room,C. The agent's attitude,D. The lack of other actors,B. The condition of the room,yes,5.69,,,,,,,,,,,,,0,10,10,10,0,0,0,0,0,0,0,0,872.8200109579993,,,,,,,,,,,,,,,862.0631737500007,862.0790127496659,862.0751239170004,867.7588756669993,867.7707067499996,867.7810556669992,868.041368791999,868.041368791999,871.2877048329992,871.9083588329995,3.9916666666666663,3.481675125000038,1,[0.6302281249991211],[0.6302307909991214],,,,,,,872.8080044170001,872.8200109579993,872.8200109579993,899.6903273749995,"There are chairs in a room, and the narrator stares at something",1,[26.87883258399961],[26.87883574999978],,,,,,,,,,,,,,,,,,,,,,859.9942796249998,860.0012498329997,860.0012498329997,860.0012498329997,862.0629696670003,1,[2.0668401669991],[2.0668428749995655],871.9089194169992,871.9199251669997,872.8071868330007,1,[0.8976576250006474],[0.8976637499999924],,,,,,p_8,001,2024-05-08_16h23.28.241,speech_rate,2023.2.3,None,2024-05-08 16h23.40.947520 -0700,
,Someday_79_condition-5x.wav,Someday__Someday__Maybe__Unabridged___File_036_of_116_1.wav,But something is holding me back It would be so easy to say yes and leave this room with an agent almost too easy I Look around the room and the walls of old scripts and playbills that seemed warm and friendly when I first came in Now look cluttered and shabby the leather on the arms of this giant lumpy chair is worn thin The stuffing is peeking through one of the seams and the sunlight streaming through the window is cloudy with dust I stammer a bit,What is one of the factors that is preventing the narrator from immediately accepting the agent's offer?,A. The agent's appearance,B. The condition of the room,C. The agent's attitude,D. The lack of other actors,B. The condition of the room,yes,5.69,,,,,,,,,,,,,0,10,10,10,0,0,0,0,,,,,,,,,,,,,,,,,,,,,,,,,,,,,,,,,,,,,,,,,,,,,,,,,,,,,,,,,,,,,,,,,,,,,,,,,,,,,,,,,,,,,,,,,p_8,001,2024-05-08_16h23.28.241,speech_rate,2023.2.3,None,2024-05-08 16h23.40.947520 -0700,
,Someday_79_condition-5x.wav,Someday__Someday__Maybe__Unabridged___File_036_of_116_1.wav,But something is holding me back It would be so easy to say yes and leave this room with an agent almost too easy I Look around the room and the walls of old scripts and playbills that seemed warm and friendly when I first came in Now look cluttered and shabby the leather on the arms of this giant lumpy chair is worn thin The stuffing is peeking through one of the seams and the sunlight streaming through the window is cloudy with dust I stammer a bit,What is one of the factors that is preventing the narrator from immediately accepting the agent's offer?,A. The agent's appearance,B. The condition of the room,C. The agent's attitude,D. The lack of other actors,B. The condition of the room,yes,5.69,,,,,,,,,,,,,0,10,10,10,,,,,,,,,,,,,,,,,,,,,,,,,,,,,,,,,,,,,,,,,,,,,,,,,,,,,899.690786833,909.0468689999998,0,,,1,9.345506207999279,9.345508874999723,0,,,0,,,,,,,,,,,,,,,,,,,,,,,,,,,,,p_8,001,2024-05-08_16h23.28.241,speech_rate,2023.2.3,None,2024-05-08 16h23.40.947520 -0700,
,Someday_96_condition-3x.wav,Someday__Someday__Maybe__Unabridged___File_042_of_116_0.wav,My point is about the competitive thing I've always naturally made everything a competition in a way so I already know I'm tough and it actually comes sort of easily to me And I'm not afraid to be hurt or rejected because I have naturally low self esteem anyway So I always expect the worst which is weird because I also have a vision for myself where I can totally picture succeeding well almost totally on a good day And I'm quick and I'm sure that whatever I don't know yet I can learn quickly because I'm quick which I know I just said because I'm quick Ha ha get it,How does the narrator feel about competition and their ability to succeed?,A. She is afraid of competition,B. She is quick to learn and not afraid of failure,C. She has low self-esteem and avoids competition,D. She believes in the concept of competition,B. She is quick to learn and not afraid of failure,yes,10.68,,,,,,,,,,,,,0,11,11,11,0,0,0,0,0,0,0,0,931.5769729999993,,,,,,,,,,,,,,,911.8405384580001,911.8560268336662,911.8568485830001,922.540376375,922.5422341249996,922.5639428329996,922.8316970420001,922.8316970420001,924.7121036669996,925.4737619579992,8.616666666666667,2.123740874998475,1,[0.7708864579999499],[0.7708897920001618],,,,,,,931.5664056669993,931.5769729999993,931.5769729999993,960.4603770419999,"The narrator is talking about her competetivness, her low self esteem, and how she is a quick learner",1,[28.890654208000342],[28.890656957999454],,,,,,,,,,,,,,,,,,,,,,909.0473537500002,909.0542326249997,909.0542326249997,909.0542326249997,911.8402828750004,1,[2.791172084000209],[2.7911747500002093],925.4743055830004,925.4787993749997,931.565784082999,1,[6.091041292000227],[6.09104487500008],,,,,,p_8,001,2024-05-08_16h23.28.241,speech_rate,2023.2.3,None,2024-05-08 16h23.40.947520 -0700,
,Someday_96_condition-3x.wav,Someday__Someday__Maybe__Unabridged___File_042_of_116_0.wav,My point is about the competitive thing I've always naturally made everything a competition in a way so I already know I'm tough and it actually comes sort of easily to me And I'm not afraid to be hurt or rejected because I have naturally low self esteem anyway So I always expect the worst which is weird because I also have a vision for myself where I can totally picture succeeding well almost totally on a good day And I'm quick and I'm sure that whatever I don't know yet I can learn quickly because I'm quick which I know I just said because I'm quick Ha ha get it,How does the narrator feel about competition and their ability to succeed?,A. She is afraid of competition,B. She is quick to learn and not afraid of failure,C. She has low self-esteem and avoids competition,D. She believes in the concept of competition,B. She is quick to learn and not afraid of failure,yes,10.68,,,,,,,,,,,,,0,11,11,11,0,0,0,0,,,,,,,,,,,,,,,,,,,,,,,,,,,,,,,,,,,,,,,,,,,,,,,,,,,,,,,,,,,,,,,,,,,,,,,,,,,,,,,,,,,,,,,,,p_8,001,2024-05-08_16h23.28.241,speech_rate,2023.2.3,None,2024-05-08 16h23.40.947520 -0700,
,Someday_96_condition-3x.wav,Someday__Someday__Maybe__Unabridged___File_042_of_116_0.wav,My point is about the competitive thing I've always naturally made everything a competition in a way so I already know I'm tough and it actually comes sort of easily to me And I'm not afraid to be hurt or rejected because I have naturally low self esteem anyway So I always expect the worst which is weird because I also have a vision for myself where I can totally picture succeeding well almost totally on a good day And I'm quick and I'm sure that whatever I don't know yet I can learn quickly because I'm quick which I know I just said because I'm quick Ha ha get it,How does the narrator feel about competition and their ability to succeed?,A. She is afraid of competition,B. She is quick to learn and not afraid of failure,C. She has low self-esteem and avoids competition,D. She believes in the concept of competition,B. She is quick to learn and not afraid of failure,yes,10.68,,,,,,,,,,,,,0,11,11,11,,,,,,,,,,,,,,,,,,,,,,,,,,,,,,,,,,,,,,,,,,,,,,,,,,,,,960.4608388329998,980.137394166999,0,,,1,19.665691041998798,19.665693749999264,0,,,0,,,,,,,,,,,,,,,,,,,,,,,,,,,,,p_8,001,2024-05-08_16h23.28.241,speech_rate,2023.2.3,None,2024-05-08 16h23.40.947520 -0700,
,Someday_41_condition-2x.wav,Someday__Someday__Maybe__Unabridged___File_022_of_116_0.wav,And even if I give it more thought and someday decide I'm very definitely against wearing the same animal that brings Easter baskets to little children it's not really like me to judge someone else for her rabbit related choices Penelope's face falls and she looks down at her jacket You know she says it is real I wasn't sure about it myself but it was my mother's and so I figured it's vintage She trails off and absently runs her fingers over the silky white collar,What does Penelope say about her rabbit fur jacket?,A. It's fake,B. It's vintage,C. It's for Easter,D. It's her sister's,B. It's vintage,no,14.41,,,,,,,,,,,,,0,12,12,12,,,,,,,,,980.1454385830002,,,,,,,,,,,,,,,981.4946232500006,981.5100634166668,981.5144726670005,995.9178606669993,995.9295582920004,995.9512346249994,996.2106167080001,996.2106167080001,998.271367333,1000.2120470829996,9.091666666666667,2.2924714169985236,1,[1.9497052089991485],[1.9497074169994448],,,,,,,,,,,,,,,1000.2125030000007,1005.2812237079997,0,,,1,5.059858333999728,5.059860958999707,0,,,0,,,,,,,,,,980.1379672080002,980.1454385830002,980.1454385830002,980.1454385830002,981.4944155829999,1,[1.354633000000831],[1.3546362090000912],,,,,,,,,,,,p_8,001,2024-05-08_16h23.28.241,speech_rate,2023.2.3,None,2024-05-08 16h23.40.947520 -0700,
,Someday_99_condition-5x.wav,Someday__Someday__Maybe__Unabridged___File_044_of_116_1.wav,There are the things we all know we're supposed to have monologue comedic and dramatic song up tempo and ballad but there's a serious lack of information beyond that Today I need a funny laugh but what else should I know how to do Roller skating maybe That seems to come up a lot lately Jokes I should know more jokes in case I ever get asked if I've heard any good jokes lately but I'm not a good joke teller I always mess up the endings Maybe I should try to memorize a knock knock joke at least just in case,What does the narrator feel she needs to learn for auditions?,A. Horseback riding,B. Jokes,C. Monologues,D. Ballads,B. Jokes,no,5.524,,,,,,,,,,,,,0,13,13,13,,,,,,,,,1005.2947434580001,,,,,,,,,,,,,,,1007.1851320419992,1007.2006934166659,1007.196722875,1012.7187727500004,1012.7304251669993,1012.7416601669993,1012.9477295420002,1012.9477295420002,1015.3217081669991,1016.2507566669992,1.2083333333333333,2.553476834000321,1,[0.9380927499987592],[0.9380950830000074],,,,,,,,,,,,,,,1016.2512483329992,1028.5641811669993,0,,,1,12.30486454200036,12.304867374999958,0,,,0,,,,,,,,,,1005.2818377500007,1005.2947434580001,1005.2947434580001,1005.2947434580001,1007.1849446670003,1,[1.9026405419990624],[1.9026433330000145],,,,,,,,,,,,p_8,001,2024-05-08_16h23.28.241,speech_rate,2023.2.3,None,2024-05-08 16h23.40.947520 -0700,
,Someday_51_condition.wav,Someday__Someday__Maybe__Unabridged___File_025_of_116_4.wav,And he says Dina pauses as if the next part of the story is particularly hard to tell And he says only two things will happen with this One it's a giant hit and you're thanking me every year at the Emmys Or two they'll make the pilot it won't work it'll never air There's no scenario in between If for some reason they put this on the air and it isn't 100 fantastic he said it'll never last Dina and Leighton say together Then Dina slaps her palm to her forehead as if she still can't believe it,What does Dina do after telling the story?,A. She shakes her head,B. She slaps her palm to her forehead,C. She cries,D. She sits in silence,B. She slaps her palm to her forehead,yes,29.91996875,,,,,,,,,,,,,0,14,14,14,0,0,0,0,0,0,0,0,1064.7951181669996,,,,,,,,,,,,,,,1030.163661875,1030.2129465829992,1030.2032170830007,1060.1208634169998,1060.1347379170002,1060.1560067499995,1060.3685022499994,1060.3685022499994,1062.7045051250007,1063.40490675,10,2.5233455000015965,1,[0.709931666000557],[0.7099341250013822],,,,,,,1064.7831029579993,1064.7951181669996,1064.7951181669996,1094.2014106669994,"Diana and a friend are talking about a criticism of their TV show, saying that the pilot will either be a hit or never air",1,[29.41474404099972],[29.414746999998897],,,,,,,,,,,,,,,,,,,,,,1028.5647588329994,1028.5719639580002,1028.5719639580002,1028.5719639580002,1030.1634652499997,1,[1.5969672080009332],[1.5969730409997283],1063.4054057920002,1063.4136427079993,1064.7823439580006,1,[1.3763352080004552],[1.376337917001365],,,,,,p_8,001,2024-05-08_16h23.28.241,speech_rate,2023.2.3,None,2024-05-08 16h23.40.947520 -0700,
,Someday_51_condition.wav,Someday__Someday__Maybe__Unabridged___File_025_of_116_4.wav,And he says Dina pauses as if the next part of the story is particularly hard to tell And he says only two things will happen with this One it's a giant hit and you're thanking me every year at the Emmys Or two they'll make the pilot it won't work it'll never air There's no scenario in between If for some reason they put this on the air and it isn't 100 fantastic he said it'll never last Dina and Leighton say together Then Dina slaps her palm to her forehead as if she still can't believe it,What does Dina do after telling the story?,A. She shakes her head,B. She slaps her palm to her forehead,C. She cries,D. She sits in silence,B. She slaps her palm to her forehead,yes,29.91996875,,,,,,,,,,,,,0,14,14,14,0,0,0,0,,,,,,,,,,,,,,,,,,,,,,,,,,,,,,,,,,,,,,,,,,,,,,,,,,,,,,,,,,,,,,,,,,,,,,,,,,,,,,,,,,,,,,,,,p_8,001,2024-05-08_16h23.28.241,speech_rate,2023.2.3,None,2024-05-08 16h23.40.947520 -0700,
,Someday_51_condition.wav,Someday__Someday__Maybe__Unabridged___File_025_of_116_4.wav,And he says Dina pauses as if the next part of the story is particularly hard to tell And he says only two things will happen with this One it's a giant hit and you're thanking me every year at the Emmys Or two they'll make the pilot it won't work it'll never air There's no scenario in between If for some reason they put this on the air and it isn't 100 fantastic he said it'll never last Dina and Leighton say together Then Dina slaps her palm to her forehead as if she still can't believe it,What does Dina do after telling the story?,A. She shakes her head,B. She slaps her palm to her forehead,C. She cries,D. She sits in silence,B. She slaps her palm to her forehead,yes,29.91996875,,,,,,,,,,,,,0,14,14,14,,,,,,,,,,,,,,,,,,,,,,,,,,,,,,,,,,,,,,,,,,,,,,,,,,,,,1094.2018948749992,1097.1422367079995,0,,,1,2.9314474999991944,2.93145020799966,0,,,0,,,,,,,,,,,,,,,,,,,,,,,,,,,,,p_8,001,2024-05-08_16h23.28.241,speech_rate,2023.2.3,None,2024-05-08 16h23.40.947520 -0700,
,Someday_63_condition-4x.wav,Someday__Someday__Maybe__Unabridged___File_030_of_116_2.wav,He looked it up How In what Does he just spend the day traveling around to towns in New Jersey trying to uncover fraudulent theatrical claims It's a small theater I said somewhat indignantly Small but very well respected Well if you say so We have the booklet of all the Lort Theaters A through D and I didn't see it anywhere Look there's a booklet of all the regional theaters There are categories from A to D I didn't know any of that,What does the narrator find surprising about him looking up the theater?,A. That he traveled to New Jersey,B. That he didn't know about the booklet,C. That he spent the day on it,D. That he found the theater well-respected,C. That he spent the day on it,no,7.1425,,,,,,,,,,,,,0,15,15,15,,,,,,,,,1097.1495544169993,,,,,,,,,,,,,,,1098.3932466250008,1098.4085914166665,1098.4067962919999,1105.5403191250007,1105.5527164579998,1105.5639322499992,1105.829612083,1105.829612083,1108.485038375,1109.2915982499999,1.7750000000000004,2.896337250000215,1,[0.8156120000003284],[0.8156144160002441],,,,,,,,,,,,,,,1109.2920396249992,1116.937842333,0,,,0,,,0,,,1,7.635557999999946,7.63556116700056,,,,,,,,1097.1427755000004,1097.1495544169993,1097.1495544169993,1097.1495544169993,1098.393018625,1,[1.2485404159997415],[1.2485432079993188],,,,,,,,,,,,p_8,001,2024-05-08_16h23.28.241,speech_rate,2023.2.3,None,2024-05-08 16h23.40.947520 -0700,
,Someday_64_condition.wav,Someday__Someday__Maybe__Unabridged___File_031_of_116_0.wav,The traffic isn't too bad yet and the sun is still low in the sky I pass a few trucks parked on 72nd flanked by orange cones and signs stapled to the electrical poles that say no parking permit to film This must be the shoot my shoot A stocky girl is standing on the corner by the trucks wearing a giant fur hat with ear flaps and speaking into a walkie talkie Hi excuse me I say What is this for Mayonnaise commercial she says gruffly I'm in the wrong place,What is happening on 72nd Street?,A. A traffic jam,B. A film shoot,C. A parade,D. A protest,B. A film shoot,yes,28.75996875,,,,,,,,,,,,,0,16,16,16,0,0,0,0,0,0,0,0,1152.590204832999,,,,,,,,,,,,,,,1119.536100333,1119.5680356253329,1119.5669713749994,1148.3366779169992,1148.3389822919999,1148.3608084169991,1148.5738338329993,1148.5738338329993,1150.9522810420003,1151.7422016670007,9.933333333333334,2.5642311249994236,1,[0.8022955420001381],[0.802297832999102],,,,,,,1152.579297958,1152.590204832999,1152.590204832999,1182.58012925,"The narrator realizes that she is in the wrong place for her shot, because a stocky girl with a loudspeaker tells her it is a mayonase commer",0,,,,,,,,,,,,,,,,,,,,,,,,1116.9384142079998,1116.9510917499993,1116.9510917499993,1116.9510917499993,1119.5358469580005,1,[2.5956640829990647],[2.5956745829989814],1151.742747917,1151.7521767500002,1152.5785182500003,1,[0.8351844579992758],[0.8351870409987896],1182.5988269999998,1182.5988269999998,,,,p_8,001,2024-05-08_16h23.28.241,speech_rate,2023.2.3,None,2024-05-08 16h23.40.947520 -0700,
,Someday_64_condition.wav,Someday__Someday__Maybe__Unabridged___File_031_of_116_0.wav,The traffic isn't too bad yet and the sun is still low in the sky I pass a few trucks parked on 72nd flanked by orange cones and signs stapled to the electrical poles that say no parking permit to film This must be the shoot my shoot A stocky girl is standing on the corner by the trucks wearing a giant fur hat with ear flaps and speaking into a walkie talkie Hi excuse me I say What is this for Mayonnaise commercial she says gruffly I'm in the wrong place,What is happening on 72nd Street?,A. A traffic jam,B. A film shoot,C. A parade,D. A protest,B. A film shoot,yes,28.75996875,,,,,,,,,,,,,0,16,16,16,0,0,0,0,,,,,,,,,,,,,,,,,,,,,,,,,,,,,,,,,,,,,,,,,,,,,,,,,,,,,,,,,,,,,,,,,,,,,,,,,,,,,,,,,,,,,,,,,p_8,001,2024-05-08_16h23.28.241,speech_rate,2023.2.3,None,2024-05-08 16h23.40.947520 -0700,
,Someday_64_condition.wav,Someday__Someday__Maybe__Unabridged___File_031_of_116_0.wav,The traffic isn't too bad yet and the sun is still low in the sky I pass a few trucks parked on 72nd flanked by orange cones and signs stapled to the electrical poles that say no parking permit to film This must be the shoot my shoot A stocky girl is standing on the corner by the trucks wearing a giant fur hat with ear flaps and speaking into a walkie talkie Hi excuse me I say What is this for Mayonnaise commercial she says gruffly I'm in the wrong place,What is happening on 72nd Street?,A. A traffic jam,B. A film shoot,C. A parade,D. A protest,B. A film shoot,yes,28.75996875,,,,,,,,,,,,,0,16,16,16,,,,,,,,,,,,,,,,,,,,,,,,,,,,,,,,,,,,,,,,,,,,,,,,,,,,,1182.5806250829992,1187.0567348749992,0,,,1,4.46708204099923,4.467085000000225,0,,,0,,,,,,,,,,,,,,,,,,,,,,,,,,,,,p_8,001,2024-05-08_16h23.28.241,speech_rate,2023.2.3,None,2024-05-08 16h23.40.947520 -0700,
,Someday_65_condition-4x.wav,Someday__Someday__Maybe__Unabridged___File_032_of_116_0.wav,From the minute I walk into the wardrobe fitting in a trailer near mine I'm confused There are two giant rolling racks one full of tan trousers one stuffed with 30 or 40 identical blue shirts Oh Are there are there more people coming I ask a harried looking woman nearby She looks at me as though I've said something strange what oh the racks No those are all for you But aren't these all the same pants I say laughing a little,What does the narrator find confusing in the wardrobe fitting?,A. The lack of clothing options,B. The number of people there,C. The presence of a harried woman,D. The identical blue shirts and tan trousers,D. The identical blue shirts and tan trousers,no,7.0225,,,,,,,,,,,,,0,17,17,17,,,,,,,,,1187.0646925420006,,,,,,,,,,,,,,,1188.8294079579991,1188.845301708667,1188.840865791999,1195.858859,1195.8746180830003,1195.8852461669994,1196.1516793749997,1196.1516793749997,1198.3553197500005,1199.017764917,2.158333333333333,2.443314416999783,1,[0.6739074580000306],[0.6739097500012576],,,,,,,,,,,,,,,1199.018218833,1212.4059677080004,1,13.378685792000397,13.37868804199934,0,,,0,,,0,,,,,,,,,,1187.057311167,1187.0646925420006,1187.0646925420006,1187.0646925420006,1188.829219666999,1,[1.7702398330002325],[1.770242500000677],,,,,,,,,,,,p_8,001,2024-05-08_16h23.28.241,speech_rate,2023.2.3,None,2024-05-08 16h23.40.947520 -0700,
,Someday_58_condition-4x.wav,Someday__Someday__Maybe__Unabridged___File_028_of_116_0.wav,Her profile is sharp her whole body a series of angles that have somehow Improbably folded themselves on their hinges into the soft chair There's something so regal and linear about her I can't imagine her ever collapsing into giggles or crying hysterically She's taking her time to consider what to say next in a way that suggests she's used to people waiting for her I wonder what that's like to never worry about filling the silence Her eyes eventually float back to me,How does the narrator describe the woman's profile?,A. Sharp,B. Round,C. Regal,D. Hysterical,A. Sharp,yes,7.32,,,,,,,,,,,,,0,18,18,18,0,0,0,0,0,0,0,0,1226.5251862919995,,,,,,,,,,,,,,,1214.2250023750003,1214.2401966246673,1214.2377475419999,1221.557489249999,1221.5626539170007,1221.5738860830006,1221.7754927080005,1221.7754927080005,1224.6397649579994,1225.3822657500004,2.866666666666667,3.0258018330005143,1,[0.7674982499993348],[0.7675005839992082],,,,,,,1226.5133856249995,1226.5251862919995,1226.5251862919995,1244.834286457999,"Someone is crying histericaly, ",1,[18.31737004199931],[18.31737350000003],,,,,,,,,,,,,,,,,,,,,,1212.4064523750003,1212.411527708,1212.411527708,1212.411527708,1214.2244714579992,1,[1.8175157500008936],[1.817518542000471],1225.3827839999994,1225.3891348750003,1226.5125707919997,1,[1.129294624999602],[1.1292972499995813],,,,,,p_8,001,2024-05-08_16h23.28.241,speech_rate,2023.2.3,None,2024-05-08 16h23.40.947520 -0700,
,Someday_58_condition-4x.wav,Someday__Someday__Maybe__Unabridged___File_028_of_116_0.wav,Her profile is sharp her whole body a series of angles that have somehow Improbably folded themselves on their hinges into the soft chair There's something so regal and linear about her I can't imagine her ever collapsing into giggles or crying hysterically She's taking her time to consider what to say next in a way that suggests she's used to people waiting for her I wonder what that's like to never worry about filling the silence Her eyes eventually float back to me,How does the narrator describe the woman's profile?,A. Sharp,B. Round,C. Regal,D. Hysterical,A. Sharp,yes,7.32,,,,,,,,,,,,,0,18,18,18,0,0,0,0,,,,,,,,,,,,,,,,,,,,,,,,,,,,,,,,,,,,,,,,,,,,,,,,,,,,,,,,,,,,,,,,,,,,,,,,,,,,,,,,,,,,,,,,,p_8,001,2024-05-08_16h23.28.241,speech_rate,2023.2.3,None,2024-05-08 16h23.40.947520 -0700,
,Someday_58_condition-4x.wav,Someday__Someday__Maybe__Unabridged___File_028_of_116_0.wav,Her profile is sharp her whole body a series of angles that have somehow Improbably folded themselves on their hinges into the soft chair There's something so regal and linear about her I can't imagine her ever collapsing into giggles or crying hysterically She's taking her time to consider what to say next in a way that suggests she's used to people waiting for her I wonder what that's like to never worry about filling the silence Her eyes eventually float back to me,How does the narrator describe the woman's profile?,A. Sharp,B. Round,C. Regal,D. Hysterical,A. Sharp,yes,7.32,,,,,,,,,,,,,0,18,18,18,,,,,,,,,,,,,,,,,,,,,,,,,,,,,,,,,,,,,,,,,,,,,,,,,,,,,1244.834788791999,1251.7526604579998,1,6.908854125000289,6.908856833000755,0,,,0,,,0,,,,,,,,,,,,,,,,,,,,,,,,,,,,,p_8,001,2024-05-08_16h23.28.241,speech_rate,2023.2.3,None,2024-05-08 16h23.40.947520 -0700,
,Someday_95_condition-5x.wav,Someday__Someday__Maybe__Unabridged___File_041_of_116_2.wav,Sports God no no That's hilarious to think about I laugh picturing me and my dad who have been known to spend an entire weekend sitting in the living room reading books one after the other stopping only to eat a frozen pizza or make popcorn playing tennis or skiing or kayaking down some rapids Competitive like I always made everything a game when I was a kid I have a good memory and so does my dad so we try to stump each other like try to start reciting Jabberwocky from the middle,What does the narrator and their dad often do on weekends?,A. Play sports together,B. Go kayaking down rapids,C. Reading books,D. Watch movies and eat popcorn,C. Reading books,yes,5.866,,,,,,,,,,,,,0,19,19,19,0,0,0,0,0,0,0,0,1263.3927895830002,,,,,,,,,,,,,,,1253.5772095419998,1253.5925572086674,1253.5894321670003,1259.4490371249994,1259.4619726250003,1259.4732076670007,1259.7139867919996,1259.7139867919996,1261.6482364999993,1262.4315972080003,1.025,2.1505984169998555,1,[0.7924989580005786],[0.7925011249990348],,,,,,,1263.3652665829995,1263.3927895830002,1263.3927895830002,1264.9939210419998,,1,[1.6253007499999512],[1.6253035000008822],,,,,,,,,,,,,,,,,,,,,,1251.7532185,1251.7605830829998,1251.7605830829998,1251.7605830829998,1253.5769585830003,1,[1.8220499170001858],[1.8220527499997843],1262.432074541999,1262.441930375,1263.3644291250002,1,[0.9311017079999147],[0.9311166250008682],,,,,,p_8,001,2024-05-08_16h23.28.241,speech_rate,2023.2.3,None,2024-05-08 16h23.40.947520 -0700,
,Someday_95_condition-5x.wav,Someday__Someday__Maybe__Unabridged___File_041_of_116_2.wav,Sports God no no That's hilarious to think about I laugh picturing me and my dad who have been known to spend an entire weekend sitting in the living room reading books one after the other stopping only to eat a frozen pizza or make popcorn playing tennis or skiing or kayaking down some rapids Competitive like I always made everything a game when I was a kid I have a good memory and so does my dad so we try to stump each other like try to start reciting Jabberwocky from the middle,What does the narrator and their dad often do on weekends?,A. Play sports together,B. Go kayaking down rapids,C. Reading books,D. Watch movies and eat popcorn,C. Reading books,yes,5.866,,,,,,,,,,,,,0,19,19,19,0,0,0,0,,,,,,,,,,,,,,,,,,,,,,,,,,,,,,,,,,,,,,,,,,,,,,,,,,,,,,,,,,,,,,,,,,,,,,,,,,,,,,,,,,,,,,,,,p_8,001,2024-05-08_16h23.28.241,speech_rate,2023.2.3,None,2024-05-08 16h23.40.947520 -0700,
,Someday_95_condition-5x.wav,Someday__Someday__Maybe__Unabridged___File_041_of_116_2.wav,Sports God no no That's hilarious to think about I laugh picturing me and my dad who have been known to spend an entire weekend sitting in the living room reading books one after the other stopping only to eat a frozen pizza or make popcorn playing tennis or skiing or kayaking down some rapids Competitive like I always made everything a game when I was a kid I have a good memory and so does my dad so we try to stump each other like try to start reciting Jabberwocky from the middle,What does the narrator and their dad often do on weekends?,A. Play sports together,B. Go kayaking down rapids,C. Reading books,D. Watch movies and eat popcorn,C. Reading books,yes,5.866,,,,,,,,,,,,,0,19,19,19,,,,,,,,,,,,,,,,,,,,,,,,,,,,,,,,,,,,,,,,,,,,,,,,,,,,,1264.9943402080007,1272.8340502499996,0,,,0,,,0,,,1,7.829943290998926,7.829945957999371,,,,,,,,,,,,,,,,,,,,,,,,,,,p_8,001,2024-05-08_16h23.28.241,speech_rate,2023.2.3,None,2024-05-08 16h23.40.947520 -0700,
,Someday_82_condition.wav,Someday__Someday__Maybe__Unabridged___File_037_of_116_3.wav,The end Huh I say baffled The end is supposed to show that he's come to terms with who he is It's supposed to show he's been healed Huh I say again I know Fellini can be abstract Dan says eyes gleaming Watch it with me from the beginning sometime I will I smile back at him noticing for the first time the flecks of green in his brown eyes The room seems too dark and quiet suddenly,What color are Dan's eyes,A. Blue with green flecks,B. Deep brown,C. Brown with green flecks,D. Dark green with brown flecks,C. Brown with green flecks,yes,31.15996875,,,,,,,,,,,,,0,20,20,20,0,0,0,0,0,0,0,0,1312.4678920000006,,,,,,,,,,,,,,,1274.6540552080005,1274.7031070420005,1274.6946144579997,1305.8484950000002,1305.8650187500007,1305.8866620419994,1306.0982436670001,1306.0982436670001,1310.0796442499995,1310.9577638329993,9.816666666666666,4.16850125000019,1,[0.8876436249993276],[0.8876460829997086],,,,,,,1312.4565797079995,1312.4678920000006,1312.4678920000006,1342.4554454999998,"They are watching the end of a film, in which the character comes to terms with himself, and her friend says that the director can be abstract",0,,,,,,,,,,,,,,,,,,,,,,,,1272.834485166999,1272.8421485,1272.8421485,1272.8421485,1274.6538477079994,1,[1.8177098329997534],[1.8177125829988654],1310.9583278749997,1310.9634000000005,1312.4555952499995,1,[1.4965965419996792],[1.4965991669996583],1342.4738204170008,1342.4738204170008,,,,p_8,001,2024-05-08_16h23.28.241,speech_rate,2023.2.3,None,2024-05-08 16h23.40.947520 -0700,
,Someday_82_condition.wav,Someday__Someday__Maybe__Unabridged___File_037_of_116_3.wav,The end Huh I say baffled The end is supposed to show that he's come to terms with who he is It's supposed to show he's been healed Huh I say again I know Fellini can be abstract Dan says eyes gleaming Watch it with me from the beginning sometime I will I smile back at him noticing for the first time the flecks of green in his brown eyes The room seems too dark and quiet suddenly,What color are Dan's eyes,A. Blue with green flecks,B. Deep brown,C. Brown with green flecks,D. Dark green with brown flecks,C. Brown with green flecks,yes,31.15996875,,,,,,,,,,,,,0,20,20,20,0,0,0,0,,,,,,,,,,,,,,,,,,,,,,,,,,,,,,,,,,,,,,,,,,,,,,,,,,,,,,,,,,,,,,,,,,,,,,,,,,,,,,,,,,,,,,,,,p_8,001,2024-05-08_16h23.28.241,speech_rate,2023.2.3,None,2024-05-08 16h23.40.947520 -0700,
,Someday_82_condition.wav,Someday__Someday__Maybe__Unabridged___File_037_of_116_3.wav,The end Huh I say baffled The end is supposed to show that he's come to terms with who he is It's supposed to show he's been healed Huh I say again I know Fellini can be abstract Dan says eyes gleaming Watch it with me from the beginning sometime I will I smile back at him noticing for the first time the flecks of green in his brown eyes The room seems too dark and quiet suddenly,What color are Dan's eyes,A. Blue with green flecks,B. Deep brown,C. Brown with green flecks,D. Dark green with brown flecks,C. Brown with green flecks,yes,31.15996875,,,,,,,,,,,,,0,20,20,20,,,,,,,,,,,,,,,,,,,,,,,,,,,,,,,,,,,,,,,,,,,,,,,,,,,,,1342.4558697079992,1349.5657194169999,0,,,0,,,1,7.10133154200048,7.101334459001009,0,,,,,,,,,,,,,,,,,,,,,,,,,,,,,p_8,001,2024-05-08_16h23.28.241,speech_rate,2023.2.3,None,2024-05-08 16h23.40.947520 -0700,
,Someday_6_condition-4x.wav,Someday__Someday__Maybe__Unabridged___File_006_of_116_0.wav,Why I'm having audition anxiety dreams A wave of dread crashes over me as I remember When I looked at the year at a glance calendar and my brown leather file of facts last night I realized that as of today there are exactly six months left on the deal I made with myself when I first came to New York that I'd see what I could accomplish in three years But if I wasn't well on my way to having a real career as an actor by then I absolutely wouldn't keep at it after that,What is the reason for the narrator's audition anxiety dreams?,A. She forgot her lines in an audition,B. She's worried about a three-year career goal,C. She's excited about her upcoming auditions,D. She's afraid of flying to auditions,B. She's worried about a three-year career goal,yes,7.43,,,,,,,,,,,,,0,21,21,21,0,0,0,0,0,0,0,0,1364.2986087919999,,,,,,,,,,,,,,,1351.5980189170004,1351.6139272916664,1351.6108692920006,1359.048856542,1359.051092874999,1359.0620145419998,1359.3298544999998,1359.3298544999998,1362.3501066669996,1363.1887576669997,1.9083333333333332,3.2636710000006133,1,[0.8476247500002501],[0.8476272080006311],,,,,,,1364.270839875,1364.2986087919999,1364.2986087919999,1394.2731811249996,"The author realizes that there are three months until shes been in new york for  three years , and thi",0,,,,,,,,,,,,,,,,,,,,,,,,1349.5662485829998,1349.5735152500001,1349.5735152500001,1349.5735152500001,1351.5978247080002,1,[2.029953375000332],[2.0299559160011995],1363.189258291999,1363.1973932500005,1364.27006825,1,[1.0799731249990145],[1.0799858339996717],,,,,,p_8,001,2024-05-08_16h23.28.241,speech_rate,2023.2.3,None,2024-05-08 16h23.40.947520 -0700,
,Someday_6_condition-4x.wav,Someday__Someday__Maybe__Unabridged___File_006_of_116_0.wav,Why I'm having audition anxiety dreams A wave of dread crashes over me as I remember When I looked at the year at a glance calendar and my brown leather file of facts last night I realized that as of today there are exactly six months left on the deal I made with myself when I first came to New York that I'd see what I could accomplish in three years But if I wasn't well on my way to having a real career as an actor by then I absolutely wouldn't keep at it after that,What is the reason for the narrator's audition anxiety dreams?,A. She forgot her lines in an audition,B. She's worried about a three-year career goal,C. She's excited about her upcoming auditions,D. She's afraid of flying to auditions,B. She's worried about a three-year career goal,yes,7.43,,,,,,,,,,,,,0,21,21,21,0,0,0,0,,,,,,,,,,,,,,,,,,,,,,,,,,,,,,,,,,,,,,,,,,,,,,,,,,,,,,,,,,,,,,,,,,,,,,,,,,,,,,,,,,,,,,,,,p_8,001,2024-05-08_16h23.28.241,speech_rate,2023.2.3,None,2024-05-08 16h23.40.947520 -0700,
,Someday_6_condition-4x.wav,Someday__Someday__Maybe__Unabridged___File_006_of_116_0.wav,Why I'm having audition anxiety dreams A wave of dread crashes over me as I remember When I looked at the year at a glance calendar and my brown leather file of facts last night I realized that as of today there are exactly six months left on the deal I made with myself when I first came to New York that I'd see what I could accomplish in three years But if I wasn't well on my way to having a real career as an actor by then I absolutely wouldn't keep at it after that,What is the reason for the narrator's audition anxiety dreams?,A. She forgot her lines in an audition,B. She's worried about a three-year career goal,C. She's excited about her upcoming auditions,D. She's afraid of flying to auditions,B. She's worried about a three-year career goal,yes,7.43,,,,,,,,,,,,,0,21,21,21,,,,,,,,,,,,,,,,,,,,,,,,,,,,,,,,,,,,,,,,,,,,,,,,,,,,,1394.2735169579992,1399.8853442079999,0,,,1,5.601429041000301,5.601432541001486,0,,,0,,,,,,,,,,,,,,,,,,,,,,,,,,,,,p_8,001,2024-05-08_16h23.28.241,speech_rate,2023.2.3,None,2024-05-08 16h23.40.947520 -0700,
,Someday_39_condition-2x.wav,Someday__Someday__Maybe__Unabridged___File_021_of_116_1.wav,People who are admired for holding it together are not people who are about to get agents They're people who are recovering from cancer or undergoing a murder trial And I dropped a section I add hoping he'll say he didn't notice Yeah I know but I only know because I'm obsessed with that guy's work No one will dock you for that It's not exactly a glowing review but he doesn't seem totally horrified Still he's avoiding the thing I most want to know But when I fell I mean how bad was it,What does the narrator hope the person they are talking to will say?,A. That he didn't notice the mistake,B. That he noticed the dropped section,C. That he wants to be an agent,D. That he's obsessed with the narrator's work,A. That he didn't notice the mistake,yes,14.61496875,,,,,,,,,,,,,0,22,22,22,0,0,0,0,0,0,0,0,1420.950433124999,,,,,,,,,,,,,,,1402.1581902500002,1402.1740816246659,1402.1777405419998,1416.783932667,1416.8044013750005,1416.8255868750002,1417.087838166999,1417.087838166999,1419.3699586250004,1420.0988241670002,9.991666666666665,2.519677332998981,1,[0.7381208750011865],[0.7381234170006792],,,,,,,1420.9381445830004,1420.950433124999,1420.950433124999,1450.93809125,"She is asking for critique on hoe she auditioned, and she mentions that she fell. The guy she is asking is obsesed",0,,,,,,,,,,,,,,,,,,,,,,,,1399.8859552079994,1399.8938081670003,1399.8938081670003,1399.8938081670003,1402.1579992919997,1,[2.270328749998953],[2.270334457998615],1420.0993561670002,1420.1041006670002,1420.9373342079998,1,[0.8372518329997547],[0.8372544999983802],1450.9587737919992,1450.9587737919992,,,,p_8,001,2024-05-08_16h23.28.241,speech_rate,2023.2.3,None,2024-05-08 16h23.40.947520 -0700,
,Someday_39_condition-2x.wav,Someday__Someday__Maybe__Unabridged___File_021_of_116_1.wav,People who are admired for holding it together are not people who are about to get agents They're people who are recovering from cancer or undergoing a murder trial And I dropped a section I add hoping he'll say he didn't notice Yeah I know but I only know because I'm obsessed with that guy's work No one will dock you for that It's not exactly a glowing review but he doesn't seem totally horrified Still he's avoiding the thing I most want to know But when I fell I mean how bad was it,What does the narrator hope the person they are talking to will say?,A. That he didn't notice the mistake,B. That he noticed the dropped section,C. That he wants to be an agent,D. That he's obsessed with the narrator's work,A. That he didn't notice the mistake,yes,14.61496875,,,,,,,,,,,,,0,22,22,22,0,0,0,0,,,,,,,,,,,,,,,,,,,,,,,,,,,,,,,,,,,,,,,,,,,,,,,,,,,,,,,,,,,,,,,,,,,,,,,,,,,,,,,,,,,,,,,,,p_8,001,2024-05-08_16h23.28.241,speech_rate,2023.2.3,None,2024-05-08 16h23.40.947520 -0700,
,Someday_39_condition-2x.wav,Someday__Someday__Maybe__Unabridged___File_021_of_116_1.wav,People who are admired for holding it together are not people who are about to get agents They're people who are recovering from cancer or undergoing a murder trial And I dropped a section I add hoping he'll say he didn't notice Yeah I know but I only know because I'm obsessed with that guy's work No one will dock you for that It's not exactly a glowing review but he doesn't seem totally horrified Still he's avoiding the thing I most want to know But when I fell I mean how bad was it,What does the narrator hope the person they are talking to will say?,A. That he didn't notice the mistake,B. That he noticed the dropped section,C. That he wants to be an agent,D. That he's obsessed with the narrator's work,A. That he didn't notice the mistake,yes,14.61496875,,,,,,,,,,,,,0,22,22,22,,,,,,,,,,,,,,,,,,,,,,,,,,,,,,,,,,,,,,,,,,,,,,,,,,,,,1450.938524583,1461.0207224999995,1,10.071803957998782,10.071806250000009,0,,,0,,,0,,,,,,,,,,,,,,,,,,,,,,,,,,,,,p_8,001,2024-05-08_16h23.28.241,speech_rate,2023.2.3,None,2024-05-08 16h23.40.947520 -0700,
,Someday_111_condition-3x.wav,Someday__Someday__Maybe__Unabridged___File_048_of_116_4.wav,Where would he have gotten the picture You see them on the street sometimes I don't know I'm just saying It's occurred to me Because other than him that one very famous person do you recognize anyone else on that wall Well there's that cast photo from Cats with all the people in their cat costumes I don't recognize them individually but as a group they seem authentic But besides the somewhat believable cats Wait yes There's that actress My mother loved her She was on that detective show in the 60s,What are the narrator and her friend discussing on the wall?,A. A picture of a famous person,B. A cast photo from the musical Cats,C. A detective show from the '60s,D. Pictures of people on the street,A. A picture of a famous person,no,11.06625,,,,,,,,,,,,,0,23,23,23,,,,,,,,,1461.0258907080006,,,,,,,,,,,,,,,1462.655644167,1462.6710953336662,1462.6708021249997,1473.724333917,1473.7412932919997,1473.7525417920006,1474.0208386249997,1474.0208386249997,1477.3046712079995,1477.8187125000004,7.791666666666667,3.5239494159995957,1,[0.5267379159995471],[0.5267405409995263],,,,,,,,,,,,,,,1477.819188207999,1482.041369208,0,,,1,4.212265207999735,4.212267957998847,0,,,0,,,,,,,,,,1461.0211637920002,1461.0258907080006,1461.0258907080006,1461.0258907080006,1462.6554325420002,1,[1.6337424169996666],[1.6337453750002169],,,,,,,,,,,,p_8,001,2024-05-08_16h23.28.241,speech_rate,2023.2.3,None,2024-05-08 16h23.40.947520 -0700,
,Someday_119_condition-3x.wav,Someday__Someday__Maybe__Unabridged___File_053_of_116_1.wav,But when did you start doing this I didn't see any of it in the fridge Yeah no that's the best part You don't have to refrigerate it It comes in a box It's freeze dried in a package and you just take it out and soak it You soak it It sounds weird I know but it's actually very convenient because you can take it anywhere you know on the go Why can't you just eat actual healthy food the kind that doesn't require soaking Well obviously because I can't be trusted to control myself This teaches you portion control,Why does the narrator prefer soaked food?,A. Because it helps with portion control,B. Because it tastes good,C. Becauseit is cheap,D. Because the friend likes it,A. Because it helps with portion control,no,10.75875,,,,,,,,,,,,,0,24,24,24,,,,,,,,,1482.0551568329993,,,,,,,,,,,,,,,1484.2326955829994,1484.2482476246662,1484.2491438750003,1495.0281629170004,1495.0092259169996,1495.0203167500003,1495.2248682080008,1495.2248682080008,1498.4924383329999,1499.418617416999,9.033333333333333,3.446982499999649,1,[0.9356713329998456],[0.935673666999719],,,,,,,,,,,,,,,1499.4190135829995,1504.7743200000004,1,5.347244417000184,5.347247167001115,0,,,0,,,0,,,,,,,,,,1482.0420312919996,1482.0551568329993,1482.0551568329993,1482.0551568329993,1484.2324774999997,1,[2.1885559579986875],[2.18855879199873],,,,,,,,,,,,p_8,001,2024-05-08_16h23.28.241,speech_rate,2023.2.3,None,2024-05-08 16h23.40.947520 -0700,
,Someday_46_condition-5x.wav,Someday__Someday__Maybe__Unabridged___File_024_of_116_2.wav,I almost quit show business tonight I say a little breathless still astonished to have gone from complete despair to something like euphoria in such a short time Again You just quit two weeks ago I did You're a sensitive kid she says laughing That's okay you'll get tougher Let's have non farewell to show business drinks instead I'm meeting Leighton at Joe Allen Want to join Dina and I sit at the glossy wood bar at Joe Allen crowded with actors whose shows have just let out and patrons who've come from the theater,What is Dina inviting the narrator to?,A. Tea at her place,B. Drinks at a bar,C. Dinner at a restaurant,D. Party at an actor's house,B. Drinks at a bar,yes,5.98,,,,,,,,,,,,,0,25,25,25,0,0,0,0,0,0,0,0,1518.9531966249997,,,,,,,,,,,,,,,1506.8997193329997,1506.9149444996658,1506.9118215830003,1512.8910877920007,1512.901743332999,1512.9129673749994,1513.1141159580002,1513.1141159580002,1517.3735782500007,1518.0198497500005,2.591666666666667,4.414211666000483,1,[0.6613832500006538],[0.6613856250005483],,,,,,,1518.9420482919995,1518.9531966249997,1518.9531966249997,1529.4932209580002,Something about consent,1,[10.548128750000615],[10.54813175000163],,,,,,,,,,,,,,,,,,,,,,1504.7748158329996,1504.7815381670007,1504.7815381670007,1504.7815381670007,1506.8995240000004,1,[2.122966124999948],[2.122968875000879],1518.0203088750004,1518.0256716250005,1518.941490707999,1,[0.9205088749986317],[0.9205116249995626],,,,,,p_8,001,2024-05-08_16h23.28.241,speech_rate,2023.2.3,None,2024-05-08 16h23.40.947520 -0700,
,Someday_46_condition-5x.wav,Someday__Someday__Maybe__Unabridged___File_024_of_116_2.wav,I almost quit show business tonight I say a little breathless still astonished to have gone from complete despair to something like euphoria in such a short time Again You just quit two weeks ago I did You're a sensitive kid she says laughing That's okay you'll get tougher Let's have non farewell to show business drinks instead I'm meeting Leighton at Joe Allen Want to join Dina and I sit at the glossy wood bar at Joe Allen crowded with actors whose shows have just let out and patrons who've come from the theater,What is Dina inviting the narrator to?,A. Tea at her place,B. Drinks at a bar,C. Dinner at a restaurant,D. Party at an actor's house,B. Drinks at a bar,yes,5.98,,,,,,,,,,,,,0,25,25,25,0,0,0,0,,,,,,,,,,,,,,,,,,,,,,,,,,,,,,,,,,,,,,,,,,,,,,,,,,,,,,,,,,,,,,,,,,,,,,,,,,,,,,,,,,,,,,,,,p_8,001,2024-05-08_16h23.28.241,speech_rate,2023.2.3,None,2024-05-08 16h23.40.947520 -0700,
,Someday_46_condition-5x.wav,Someday__Someday__Maybe__Unabridged___File_024_of_116_2.wav,I almost quit show business tonight I say a little breathless still astonished to have gone from complete despair to something like euphoria in such a short time Again You just quit two weeks ago I did You're a sensitive kid she says laughing That's okay you'll get tougher Let's have non farewell to show business drinks instead I'm meeting Leighton at Joe Allen Want to join Dina and I sit at the glossy wood bar at Joe Allen crowded with actors whose shows have just let out and patrons who've come from the theater,What is Dina inviting the narrator to?,A. Tea at her place,B. Drinks at a bar,C. Dinner at a restaurant,D. Party at an actor's house,B. Drinks at a bar,yes,5.98,,,,,,,,,,,,,0,25,25,25,,,,,,,,,,,,,,,,,,,,,,,,,,,,,,,,,,,,,,,,,,,,,,,,,,,,,1529.493684916999,1537.635325457999,0,,,0,,,0,,,1,8.132574082999781,8.132577166999909,,,,,,,,,,,,,,,,,,,,,,,,,,,p_8,001,2024-05-08_16h23.28.241,speech_rate,2023.2.3,None,2024-05-08 16h23.40.947520 -0700,
,Someday_73_condition-5x.wav,Someday__Someday__Maybe__Unabridged___File_035_of_116_1.wav,It's four flights up to Barney's office I'm puffing by the time I make it to the top There's no secretary sitting at the desk in the little front room Hello I say to the emptiness Back here dear comes a loud and raspy voice There's a desk with a window behind it and bookshelves on either side which are stacked to the ceiling with scripts and old playbills The titles are written in Sharpie on the edge of the pages so they can be read when stacked face to face and the block print is bold but shaky,What are the stacked objects at Barney Sparks' office?,A. Scripts,B. Paychecks,C. Menus,D. Photos,A. Scripts,yes,5.868,,,,,,,,,,,,,0,26,26,26,0,0,0,0,0,0,0,0,1550.022732042,,,,,,,,,,,,,,,1539.526867167,1539.542279833666,1539.5388604580003,1545.3988822079991,1545.4121742919997,1545.4233867500006,1545.646485583,1545.646485583,1548.160490541999,1548.8709357499993,1.5250000000000001,2.7122725839999475,1,[0.719955000000482],[0.7199578750005458],,,,,,,1550.0111453749996,1550.022732042,1550.022732042,1566.845161833,"She says "Hello" to someone with a loud voice, who responds to her",1,[16.83071579100033],[16.83071870800086],,,,,,,,,,,,,,,,,,,,,,1537.6358830419995,1537.6433890829994,1537.6433890829994,1537.6433890829994,1539.5265871249994,1,[1.8890407910002978],[1.8890435410012287],1548.8714243329996,1548.891566917,1550.010430541999,1,[1.1384855840005912],[1.138488167000105],,,,,,p_8,001,2024-05-08_16h23.28.241,speech_rate,2023.2.3,None,2024-05-08 16h23.40.947520 -0700,
,Someday_73_condition-5x.wav,Someday__Someday__Maybe__Unabridged___File_035_of_116_1.wav,It's four flights up to Barney's office I'm puffing by the time I make it to the top There's no secretary sitting at the desk in the little front room Hello I say to the emptiness Back here dear comes a loud and raspy voice There's a desk with a window behind it and bookshelves on either side which are stacked to the ceiling with scripts and old playbills The titles are written in Sharpie on the edge of the pages so they can be read when stacked face to face and the block print is bold but shaky,What are the stacked objects at Barney Sparks' office?,A. Scripts,B. Paychecks,C. Menus,D. Photos,A. Scripts,yes,5.868,,,,,,,,,,,,,0,26,26,26,0,0,0,0,,,,,,,,,,,,,,,,,,,,,,,,,,,,,,,,,,,,,,,,,,,,,,,,,,,,,,,,,,,,,,,,,,,,,,,,,,,,,,,,,,,,,,,,,p_8,001,2024-05-08_16h23.28.241,speech_rate,2023.2.3,None,2024-05-08 16h23.40.947520 -0700,
,Someday_73_condition-5x.wav,Someday__Someday__Maybe__Unabridged___File_035_of_116_1.wav,It's four flights up to Barney's office I'm puffing by the time I make it to the top There's no secretary sitting at the desk in the little front room Hello I say to the emptiness Back here dear comes a loud and raspy voice There's a desk with a window behind it and bookshelves on either side which are stacked to the ceiling with scripts and old playbills The titles are written in Sharpie on the edge of the pages so they can be read when stacked face to face and the block print is bold but shaky,What are the stacked objects at Barney Sparks' office?,A. Scripts,B. Paychecks,C. Menus,D. Photos,A. Scripts,yes,5.868,,,,,,,,,,,,,0,26,26,26,,,,,,,,,,,,,,,,,,,,,,,,,,,,,,,,,,,,,,,,,,,,,,,,,,,,,1566.8456247499998,1572.7127348329996,1,5.858955249999781,5.858957999998893,0,,,0,,,0,,,,,,,,,,,,,,,,,,,,,,,,,,,,,p_8,001,2024-05-08_16h23.28.241,speech_rate,2023.2.3,None,2024-05-08 16h23.40.947520 -0700,
,Someday_68_condition-2x.wav,Someday__Someday__Maybe__Unabridged___File_033_of_116_2.wav,I'm looking into a giant mirror on a wall of mirrors each framed by dozens of fluorescent light bulbs In the blinding light my face looks nothing like the face I have in Brooklyn I wonder if this is my real face or if the face I have in Brooklyn is the real one and what my queen's face might look like Um no not that I can think of I tell her I wonder if I will over time develop preferences and what they might be in regard to my face being made up,How does the narrator describe the mirror she is looking at?,A. Framed by fluorescent lights,B. Vintage,C. Broken,D. Not big enough,A. Framed by fluorescent lights,no,14.91,,,,,,,,,,,,,0,27,27,27,,,,,,,,,1572.727189666999,,,,,,,,,,,,,,,1643.6496014170007,1643.6650458336665,1643.6698389579997,1658.583133832999,1658.5858709999993,1658.5971061670007,1658.8339497079996,1658.8339497079996,1660.8607596250004,1661.5950758750005,9.033333333333333,2.23299916599899,1,[0.7447112089994334],[0.7447136669998144],,,,,,,,,,,,,,,1661.5954959169994,1667.9171357920004,1,6.313695499999085,6.313698165999085,0,,,0,,,0,,,,,,,,,,1572.7132813749995,1572.727189666999,1572.727189666999,1572.727189666999,1643.649379208,1,[70.93448954199994],[70.93449229200087],,,,,,,,,,,,p_8,001,2024-05-08_16h23.28.241,speech_rate,2023.2.3,None,2024-05-08 16h23.40.947520 -0700,
,Someday_102_condition-2x.wav,Someday__Someday__Maybe__Unabridged___File_045_of_116_0.wav,Well it's just mainly a gag you know says the man in glasses a gag I repeat Yes a running gag like how she laughs on the nanny But we don't want it to sound anything like her laugh the man in the back of the room says emphatically Yes of course it's a laugh That's all her own just a girl who laughs funny for no particular reason the man with glasses says Okay Thanks and sorry but what do I do do,What is the character's laugh intended to be in the audition scene?,A. A running gag,B. A natural laugh,C. A villain's laugh,D. A serious and dramatic laugh,A. A running gag,no,14.04,,,,,,,,,,,,,0,28,28,28,,,,,,,,,1667.9327054580008,,,,,,,,,,,,,,,1670.0575223329997,1670.0728414586667,1670.078303332999,1684.117802749999,1684.1200731249992,1684.131309167,1684.3362853750004,1684.3362853750004,1686.9514605000004,1687.718853332999,9.616666666666667,2.795744332999675,1,[0.7763550420004321],[0.776357624999946],,,,,,,,,,,,,,,1687.7193025830002,1698.1548545829992,1,10.426754792000793,10.426757334000285,0,,,0,,,0,,,,,,,,,,1667.9176679169996,1667.9327054580008,1667.9327054580008,1667.9327054580008,1670.0572357500005,1,[2.139028749999852],[2.1390315410008043],,,,,,,,,,,,p_8,001,2024-05-08_16h23.28.241,speech_rate,2023.2.3,None,2024-05-08 16h23.40.947520 -0700,
,Someday_56_condition-2x.wav,Someday__Someday__Maybe__Unabridged___File_027_of_116_4.wav,I'm not sure how to explain it to Everett in a way I think she'll understand What do I say Oh fine thanks Today was great but it doesn't take away my general fear that I'm not now nor will I ever be good enough Oh fine thanks There's a silence as we both sip our tea My whole family just went to see the Phantom of the Opera Everett says Have you seen it No I haven't Oh it's wonderful So magical There's a giant chandelier that appears right out of the sky,What are Everett and the narrator drinking while talking to each other?,A. Coffee,B. Wine,C. Tea,D. Beer,C. Tea,yes,14.685,,,,,,,,,,,,,0,29,29,29,0,0,0,0,0,0,0,0,1720.234896,,,,,,,,,,,,,,,1700.31954925,1700.334993624667,1700.3392133750003,1715.020008166999,1715.024682542,1715.0348248329992,1715.2348385000005,1715.2348385000005,1718.5515179579997,1719.3029925419996,8.966666666666667,3.4884461669989832,1,[0.7640495830000873],[0.7640518749994953],,,,,,,1720.222458582999,1720.234896,1720.234896,1750.22198475,"She is talking to her friend and considers telling her about her mental health but does not. To break the silence, her friend tells her that her family went to see the phanto",0,,,,,,,,,,,,,,,,,,,,,,,,1698.1553839999997,1698.1678393750008,1698.1678393750008,1698.1678393750008,1700.3193258329993,1,[2.1621256670005096],[2.16212833300051],1719.3034640000005,1719.3080778330004,1720.221719707999,1,[0.9172913330003212],[0.9172940000007657],1750.239585292,1750.239585292,,,,p_8,001,2024-05-08_16h23.28.241,speech_rate,2023.2.3,None,2024-05-08 16h23.40.947520 -0700,
,Someday_56_condition-2x.wav,Someday__Someday__Maybe__Unabridged___File_027_of_116_4.wav,I'm not sure how to explain it to Everett in a way I think she'll understand What do I say Oh fine thanks Today was great but it doesn't take away my general fear that I'm not now nor will I ever be good enough Oh fine thanks There's a silence as we both sip our tea My whole family just went to see the Phantom of the Opera Everett says Have you seen it No I haven't Oh it's wonderful So magical There's a giant chandelier that appears right out of the sky,What are Everett and the narrator drinking while talking to each other?,A. Coffee,B. Wine,C. Tea,D. Beer,C. Tea,yes,14.685,,,,,,,,,,,,,0,29,29,29,0,0,0,0,,,,,,,,,,,,,,,,,,,,,,,,,,,,,,,,,,,,,,,,,,,,,,,,,,,,,,,,,,,,,,,,,,,,,,,,,,,,,,,,,,,,,,,,,p_8,001,2024-05-08_16h23.28.241,speech_rate,2023.2.3,None,2024-05-08 16h23.40.947520 -0700,
,Someday_56_condition-2x.wav,Someday__Someday__Maybe__Unabridged___File_027_of_116_4.wav,I'm not sure how to explain it to Everett in a way I think she'll understand What do I say Oh fine thanks Today was great but it doesn't take away my general fear that I'm not now nor will I ever be good enough Oh fine thanks There's a silence as we both sip our tea My whole family just went to see the Phantom of the Opera Everett says Have you seen it No I haven't Oh it's wonderful So magical There's a giant chandelier that appears right out of the sky,What are Everett and the narrator drinking while talking to each other?,A. Coffee,B. Wine,C. Tea,D. Beer,C. Tea,yes,14.685,,,,,,,,,,,,,0,29,29,29,,,,,,,,,,,,,,,,,,,,,,,,,,,,,,,,,,,,,,,,,,,,,,,,,,,,,1750.222426541999,1753.6476123749999,0,,,0,,,1,3.4172904170009133,3.4172932080000464,0,,,,,,,,,,,,,,,,,,,,,,,,,,,,,p_8,001,2024-05-08_16h23.28.241,speech_rate,2023.2.3,None,2024-05-08 16h23.40.947520 -0700,
,Someday_12_condition-5x.wav,Someday__Someday__Maybe__Unabridged___File_008_of_116_4.wav,Of course the wedding's not until June but if you wanna stay at the Sands by the shore she said to book early Okay thanks Franny I'm worried about you Why Well from my initial calculations this new telephone identification system could save you upwards of 20 to 25 seconds per day I'm concerned about how you'll adjust to all the new free time Har har Also one of my students says there's a show called Friends Apparently it's a popular one Maybe you should try to apply for that,What does the narrator's father joke about regarding caller ID?,A. The invention of the telephone,B. The inconvenience of caller ID,C. The potential time saved with caller ID,D. The popularity of caller ID,C. The potential time saved with caller ID,no,5.944,,,,,,,,,,,,,0,30,30,30,,,,,,,,,1753.6705275000004,,,,,,,,,,,,,,,1755.5650911249995,1755.5802432916664,1755.5773609579992,1761.5115674169992,1761.5267422079996,1761.5374813750004,1761.8005130420006,1761.8005130420006,1765.3373497499997,1765.8736423329992,1.166666666666667,3.7739698339992174,1,[0.5459365000006073],[0.5459390840005653],,,,,,,,,,,,,,,1765.8741209580003,1771.440549249999,1,5.556665207999686,5.556668040999284,0,,,0,,,0,,,,,,,,,,1753.6481415420003,1753.6705275000004,1753.6705275000004,1753.6705275000004,1755.564836042,1,[1.9148858330008807],[1.9148891250006272],,,,,,,,,,,,p_8,001,2024-05-08_16h23.28.241,speech_rate,2023.2.3,None,2024-05-08 16h23.40.947520 -0700,
,Someday_55_condition-5x.wav,Someday__Someday__Maybe__Unabridged___File_027_of_116_3.wav,I'm mesmerized by her easy way with the awkward looking spoon shaped strainer that holds the tiny leaves and by the diamond engagement ring that glitters on her hand I wonder if she ever takes it off and if it has a napkin it rests on at night too Milk or lemon she asks Um milk I guess Everett and I are the same age but something about the formal way she does everything makes me sit up straighter on the sofa as if I'm at the house of an older relative instead of in my own living room in Brooklyn,What does the narrator do when talking to Everett?,A. She sits up straight,B. She talks with a deeper voice,C. She avoids eye contact,D. She lowers her voice,A. She sits up straight,no,5.802,,,,,,,,,,,,,0,31,31,31,,,,,,,,,1771.4487933330001,,,,,,,,,,,,,,,1772.889863167,1772.9057572916665,1772.9014400830001,1778.7064787920008,1778.7108704170005,1778.722079916999,1778.9263388750005,1778.9263388750005,1780.9498464999997,1781.5411279170003,1.9416666666666667,2.2003322090004076,1,[0.6004343750009866],[0.6004366659999505],,,,,,,,,,,,,,,1781.5415480419997,1790.5266114999995,1,8.9771593330006,8.977161999999225,0,,,0,,,0,,,,,,,,,,1771.4410912080002,1771.4487933330001,1771.4487933330001,1771.4487933330001,1772.889660375,1,[1.4466556669995043],[1.4466582500008371],,,,,,,,,,,,p_8,001,2024-05-08_16h23.28.241,speech_rate,2023.2.3,None,2024-05-08 16h23.40.947520 -0700,
