index,wav_file,old_name,segment_text,question,C1,C2,C3,C4,C_correct,summary,duration,training.thisRepN,training.thisTrialN,training.thisN,training.thisIndex,sum_true.thisRepN,sum_true.thisTrialN,sum_true.thisN,sum_true.thisIndex,dummy_loop.thisRepN,dummy_loop.thisTrialN,dummy_loop.thisN,dummy_loop.thisIndex,experiment.thisRepN,experiment.thisTrialN,experiment.thisN,experiment.thisIndex,sum_true_exp.thisRepN,sum_true_exp.thisTrialN,sum_true_exp.thisN,sum_true_exp.thisIndex,dummy_loop_exp.thisRepN,dummy_loop_exp.thisTrialN,dummy_loop_exp.thisN,dummy_loop_exp.thisIndex,thisRow.t,notes,Experimenter.started,reminder.started,Experimenter.stopped,Instructions.started,Instructions.stopped,Start_Segment_Train.started,Play_train.started,Trial_counter_train.started,text_5.started,Start_Segment_Train.stopped,Play_train.numClicks,Play_train.timesOn,Play_train.timesOff,Training_Segment.started,Experimen_audio.started,polygon.started,polygon.stopped,Training_Segment.stopped,Rating.started,slider.started,text_3.started,button_2.started,Rating.stopped,slider.response,slider.rt,button_2.numClicks,button_2.timesOn,button_2.timesOff,Start_Summary.started,text_2.started,Start_Summary.stopped,summary_button.numClicks,summary_button.timesOn,summary_button.timesOff,Summary.started,textbox.started,summary_done.started,Summary.stopped,textbox.text,summary_done.numClicks,summary_done.timesOn,summary_done.timesOff,Multiple_Choice_2.started,Multiple_Choice_2.stopped,A.numClicks,A.timesOn,A.timesOff,B.numClicks,B.timesOn,B.timesOff,C.numClicks,C.timesOn,C.timesOff,D.numClicks,D.timesOn,D.timesOff,Start_Exp.started,Start_exp.started,Start.started,Start_Exp.stopped,Start.numClicks,Start.timesOn,Start.timesOff,Start_Segment.started,Play.started,Trial_counter.started,text_6.started,Start_Segment.stopped,Play.numClicks,Play.timesOn,Play.timesOff,Start_Sum_Exp.started,text_4.started,Start_Sum_Exp.stopped,sum_button.numClicks,sum_button.timesOn,sum_button.timesOff,Thanks.started,text_7.started,text_7.stopped,Thanks.stopped,participant,session,date,expName,psychopyVersion,frameRate,expStart,
1,Someday_trial_condition.wav,Someday__Someday__Maybe__Unabridged___File_069_of_116_3.wav,It's a gut feeling You can't nickname him He's a real person not a joke person You don't have to tell me Only a real person would try to shake hands with my best friend's foot Jane you're not explaining it right It was very romantic And thankfully our steaming bowl of bright yellow melted cheese with flecks of green chilies arrives Listen she says dipping a chip into the creamy depths You're the one with the brand new personality I'm still the same old Jane,"What does the narrator have, according to Jane?",A) A new recipe for dipping sauce,B) A new personality,C) A new restaurant suggestion,D) A new pair of shoes,B) A new personality,yes,30,0,0,0,0,0,0,0,0,0,0,0,0,,,,,,,,,,,,,89.27609841600002,,0.012320541000008234,0.022560541000018475,7.008743333000041,7.008751791000009,36.63939791600001,36.650001333000034,36.66726504100001,36.66726504100001,36.66726504100001,46.57228733300002,1,[9.912677999999971],[9.912682582999992],46.572781666000026,46.621418125000034,46.61558116600003,76.63589283300001,76.60623637500004,76.62772387500002,76.83955833300001,76.83955833300001,79.42776045800002,80.38527775,9.116666666666667,2.775277791999997,1,[0.9670682500000112],[0.9670711659999824],80.38739587500004,80.393480791,89.23883525000002,1,[8.850776166999992],[8.850779042],89.239435125,89.27609841600002,89.27609841600002,112.948853375,"The two people are talking about dipping things into cheese, and Jane is the same old jane",1,[23.68327854200004],[23.683285167000008],,,,,,,,,,,,,,,,,,,,,,,,,,,,,,,,,,,,,,,,p_6,001,2024-05-08_12h00.01.482,speech_rate,2023.2.3,None,2024-05-08 12h04.26.910917 -0700,
1,Someday_trial_condition.wav,Someday__Someday__Maybe__Unabridged___File_069_of_116_3.wav,It's a gut feeling You can't nickname him He's a real person not a joke person You don't have to tell me Only a real person would try to shake hands with my best friend's foot Jane you're not explaining it right It was very romantic And thankfully our steaming bowl of bright yellow melted cheese with flecks of green chilies arrives Listen she says dipping a chip into the creamy depths You're the one with the brand new personality I'm still the same old Jane,"What does the narrator have, according to Jane?",A) A new recipe for dipping sauce,B) A new personality,C) A new restaurant suggestion,D) A new pair of shoes,B) A new personality,yes,30,0,0,0,0,0,0,0,0,,,,,,,,,,,,,,,,,,,,,,,,,,,,,,,,,,,,,,,,,,,,,,,,,,,,,,,,,,,,,,,,,,,,,,,,,,,,,,,,,,,,,,,,,,,,,,,,,,,,p_6,001,2024-05-08_12h00.01.482,speech_rate,2023.2.3,None,2024-05-08 12h04.26.910917 -0700,
1,Someday_trial_condition.wav,Someday__Someday__Maybe__Unabridged___File_069_of_116_3.wav,It's a gut feeling You can't nickname him He's a real person not a joke person You don't have to tell me Only a real person would try to shake hands with my best friend's foot Jane you're not explaining it right It was very romantic And thankfully our steaming bowl of bright yellow melted cheese with flecks of green chilies arrives Listen she says dipping a chip into the creamy depths You're the one with the brand new personality I'm still the same old Jane,"What does the narrator have, according to Jane?",A) A new recipe for dipping sauce,B) A new personality,C) A new restaurant suggestion,D) A new pair of shoes,B) A new personality,yes,30,0,0,0,0,,,,,,,,,,,,,,,,,,,,,,,,,,,,,,,,,,,,,,,,,,,,,,,,,,,,,,,,,,,,,,,,,112.94941391600003,119.23478175000002,1,6.264666834000025,6.264669667000021,0,,,0,,,0,,,,,,,,,,,,,,,,,,,,,,,,,,,,p_6,001,2024-05-08_12h00.01.482,speech_rate,2023.2.3,None,2024-05-08 12h04.26.910917 -0700,
2,Someday_trial_condition-5x.wav,Someday__Someday__Maybe__Unabridged___File_103_of_116_1.wav,Isn't halfway where two people usually meet Well in general maybe But tonight this is sort of a big deal for me It's my night I'm not sure you you don't think I get it Well no I mean how could you I'm having trouble making sense of this conversation James is speaking with authority but there's something wrong Something feels so wrong somehow I don't care about waving and smiling and having my picture taken with him,"How does James speak, according to the narrator?",A) With compassion,B) With grief,C) With hesitation,D) With authority,D) With authority,yes,6.2,0,1,1,1,0,0,0,0,0,0,0,0,,,,,,,,,,,,,132.61205137500002,,,,,,,119.23560850000001,119.245096708,119.245096708,119.245096708,121.50954637500001,1,[2.270131249999963],[2.2701338329999885],121.50975491600002,121.52536108266669,121.52351666600003,127.728802583,127.70977854100005,127.72101683300002,127.97111141600004,127.97111141600004,130.60795016600002,131.67655904100002,2.033333333333333,2.8594013330000507,1,[1.0808250840000255],[1.080827499999998],131.67712725,131.68195154100005,132.60046408300002,1,[0.9229611249999721],[0.9229634999999803],132.60102091600004,132.61205137500002,132.61205137500002,137.5171075,wrong,1,[4.912101124999992],[4.912104166000006],,,,,,,,,,,,,,,,,,,,,,,,,,,,,,,,,,,,,,,,p_6,001,2024-05-08_12h00.01.482,speech_rate,2023.2.3,None,2024-05-08 12h04.26.910917 -0700,
2,Someday_trial_condition-5x.wav,Someday__Someday__Maybe__Unabridged___File_103_of_116_1.wav,Isn't halfway where two people usually meet Well in general maybe But tonight this is sort of a big deal for me It's my night I'm not sure you you don't think I get it Well no I mean how could you I'm having trouble making sense of this conversation James is speaking with authority but there's something wrong Something feels so wrong somehow I don't care about waving and smiling and having my picture taken with him,"How does James speak, according to the narrator?",A) With compassion,B) With grief,C) With hesitation,D) With authority,D) With authority,yes,6.2,0,1,1,1,0,0,0,0,,,,,,,,,,,,,,,,,,,,,,,,,,,,,,,,,,,,,,,,,,,,,,,,,,,,,,,,,,,,,,,,,,,,,,,,,,,,,,,,,,,,,,,,,,,,,,,,,,,,p_6,001,2024-05-08_12h00.01.482,speech_rate,2023.2.3,None,2024-05-08 12h04.26.910917 -0700,
2,Someday_trial_condition-5x.wav,Someday__Someday__Maybe__Unabridged___File_103_of_116_1.wav,Isn't halfway where two people usually meet Well in general maybe But tonight this is sort of a big deal for me It's my night I'm not sure you you don't think I get it Well no I mean how could you I'm having trouble making sense of this conversation James is speaking with authority but there's something wrong Something feels so wrong somehow I don't care about waving and smiling and having my picture taken with him,"How does James speak, according to the narrator?",A) With compassion,B) With grief,C) With hesitation,D) With authority,D) With authority,yes,6.2,0,1,1,1,,,,,,,,,,,,,,,,,,,,,,,,,,,,,,,,,,,,,,,,,,,,,,,,,,,,,,,,,,,,,,,,,137.517581333,148.43704154100004,0,,,0,,,0,,,1,10.908158958000001,10.908165999999994,,,,,,,,,,,,,,,,,,,,,,,,,,p_6,001,2024-05-08_12h00.01.482,speech_rate,2023.2.3,None,2024-05-08 12h04.26.910917 -0700,
,Someday_88_condition-4x.wav,Someday__Someday__Maybe__Unabridged___File_039_of_116_1.wav,It always seems like something that I should like more than I do though some flavors taste like dirty bath water Or maybe I don't like it on principle because I know it's supposed to be healthy If it was filled with calories and fat would I like it more and why oh why am I thinking about this right now This is hardly the time to make a ruling on such a difficult subject What no scotch I say and I can immediately feel my face flush red I put my hand on my hip in what I hope is a jaunty manner in an attempt to cover for the fact that I'm trying too hard,Why does the narrator say she puts her hand on her hip,A. To hide that she is trying too hard,B. To look attractive,C. To rest her hand,D. To be serious,A. To hide that she is trying too hard,yes,7.205,,,,,,,,,,,,,0,0,0,0,0,0,0,0,0,0,0,0,191.66205308300005,,,,,,,,,,,,,,,175.017975708,175.0338659996667,175.03090012500002,182.2285855,182.24626104100003,182.25747058299999,182.467216958,182.467216958,188.06752733300004,189.49588808300007,2.875,6.335201665999989,1,[1.43771449999997],[1.4377169999999069],,,,,,,191.64808079099998,191.66205308300005,191.66205308300005,209.29797387500003,something was happening without trying too hard,1,[17.64685708400009],[17.646860375000074],,,,,,,,,,,,,,,148.43753866600002,148.44509583300004,148.44509583300004,173.24537312500001,1,[24.806987917000015],[24.806990874999997],173.37586737499998,173.38807295800007,173.38807295800007,173.38807295800007,175.01762266600008,1,[1.6376320000000533],[1.6376345840000113],189.49657104100004,189.50207212500004,191.64732979100006,1,[2.150095333999957],[2.15009816700001],,,,,p_6,001,2024-05-08_12h00.01.482,speech_rate,2023.2.3,None,2024-05-08 12h04.26.910917 -0700,
,Someday_88_condition-4x.wav,Someday__Someday__Maybe__Unabridged___File_039_of_116_1.wav,It always seems like something that I should like more than I do though some flavors taste like dirty bath water Or maybe I don't like it on principle because I know it's supposed to be healthy If it was filled with calories and fat would I like it more and why oh why am I thinking about this right now This is hardly the time to make a ruling on such a difficult subject What no scotch I say and I can immediately feel my face flush red I put my hand on my hip in what I hope is a jaunty manner in an attempt to cover for the fact that I'm trying too hard,Why does the narrator say she puts her hand on her hip,A. To hide that she is trying too hard,B. To look attractive,C. To rest her hand,D. To be serious,A. To hide that she is trying too hard,yes,7.205,,,,,,,,,,,,,0,0,0,0,0,0,0,0,,,,,,,,,,,,,,,,,,,,,,,,,,,,,,,,,,,,,,,,,,,,,,,,,,,,,,,,,,,,,,,,,,,,,,,,,,,,,,,,,,,,,,,,p_6,001,2024-05-08_12h00.01.482,speech_rate,2023.2.3,None,2024-05-08 12h04.26.910917 -0700,
,Someday_88_condition-4x.wav,Someday__Someday__Maybe__Unabridged___File_039_of_116_1.wav,It always seems like something that I should like more than I do though some flavors taste like dirty bath water Or maybe I don't like it on principle because I know it's supposed to be healthy If it was filled with calories and fat would I like it more and why oh why am I thinking about this right now This is hardly the time to make a ruling on such a difficult subject What no scotch I say and I can immediately feel my face flush red I put my hand on my hip in what I hope is a jaunty manner in an attempt to cover for the fact that I'm trying too hard,Why does the narrator say she puts her hand on her hip,A. To hide that she is trying too hard,B. To look attractive,C. To rest her hand,D. To be serious,A. To hide that she is trying too hard,yes,7.205,,,,,,,,,,,,,0,0,0,0,,,,,,,,,,,,,,,,,,,,,,,,,,,,,,,,,,,,,,,,,,,,,,,,,,,,,209.29843166600006,212.96477595800002,1,3.6549442909999925,3.6549468330000536,0,,,0,,,0,,,,,,,,,,,,,,,,,,,,,,,,,,,,p_6,001,2024-05-08_12h00.01.482,speech_rate,2023.2.3,None,2024-05-08 12h04.26.910917 -0700,
,Someday_11_condition-3x.wav,Someday__Someday__Maybe__Unabridged___File_008_of_116_3.wav,Hello Yes hi Dad I said Franny this is your father Dad I know How did you know it was me I told you we have caller ID now Is it curable Dad it's that thing where your number comes up when you call What a horrible invention Why would anyone want that So you know who's calling before you pick up Why don't you just say hello who's calling Dad what's up I have an audition To the point then Your Aunt Mary Ellen wanted me to remind you to book a room for Katie's wedding,What does the narrator's father want them to do regarding Katie's wedding?,A. Attend the rehearsal dinner,B. Book a room for the wedding,C. Be a bridesmaid,D. Decline the wedding invitation,B. Book a room for the wedding,no,11.04,,,,,,,,,,,,,0,1,1,1,,,,,,,,,212.973424583,,,,,,,,,,,,,,,215.997931333,216.01349616666667,216.01456274999998,227.06424262500002,227.06548354100005,227.07673379100004,227.32048099999997,227.32048099999997,231.863547541,232.59851383300008,8.0,4.758202624999967,1,[0.747803666999971],[0.7478060839999898],,,,,,,,,,,,,,,232.59892241600005,240.81598908299998,0,,,1,8.207378416999973,8.207381250000026,0,,,0,,,,,,,,,,212.96587475,212.973424583,212.973424583,212.973424583,215.99767887500002,1,[3.030246207999994],[3.0302487080000446],,,,,,,,,,,p_6,001,2024-05-08_12h00.01.482,speech_rate,2023.2.3,None,2024-05-08 12h04.26.910917 -0700,
,Someday_13_condition-5x.wav,Someday__Someday__Maybe__Unabridged___File_009_of_116_1.wav,After hanging up with my dad I think I hear Jane downstairs home from the set which means I might actually get something to eat before I get on the train I made it onto the actual wait list I call while coming down the stairs To see the famous nutritionist person Yes Also do I have a problem with cigarettes You seem to be doing just fine with them Jane says dumping a large brown bag onto the top of our never used oven with a thud She's wearing a trench coat we found at the Goodwill in Prospect Heights and her signature giant red vintage sunglasses,What is Jane's signature accessorize?,A. Red vintage sunglasses,B. A red trenchcoat,C. Red platform boots,D. A brown belt,A. Red vintage sunglasses,yes,6.074,,,,,,,,,,,,,0,2,2,2,0,0,0,0,0,0,0,0,252.78589916600004,,,,,,,,,,,,,,,241.598847708,241.61488204166668,241.61075695800002,247.682533916,247.700007208,247.71129958300003,247.919240458,247.919240458,250.00366204099998,250.904081291,1.3583333333333332,2.268308832999992,1,[0.909568375000049],[0.9095706250000148],,,,,,,252.77512224999998,252.78589916600004,252.78589916600004,258.189777916,,1,[5.411531250000053],[5.411534125000003],,,,,,,,,,,,,,,,,,,,,,240.81651279100004,240.82351766600004,240.82351766600004,240.82351766600004,241.59865741600004,1,[0.78069708299995],[0.7806995830000005],250.90461975000005,250.91479775000005,252.77412037500005,1,[1.869090124999957],[1.869092667000018],,,,,p_6,001,2024-05-08_12h00.01.482,speech_rate,2023.2.3,None,2024-05-08 12h04.26.910917 -0700,
,Someday_13_condition-5x.wav,Someday__Someday__Maybe__Unabridged___File_009_of_116_1.wav,After hanging up with my dad I think I hear Jane downstairs home from the set which means I might actually get something to eat before I get on the train I made it onto the actual wait list I call while coming down the stairs To see the famous nutritionist person Yes Also do I have a problem with cigarettes You seem to be doing just fine with them Jane says dumping a large brown bag onto the top of our never used oven with a thud She's wearing a trench coat we found at the Goodwill in Prospect Heights and her signature giant red vintage sunglasses,What is Jane's signature accessorize?,A. Red vintage sunglasses,B. A red trenchcoat,C. Red platform boots,D. A brown belt,A. Red vintage sunglasses,yes,6.074,,,,,,,,,,,,,0,2,2,2,0,0,0,0,,,,,,,,,,,,,,,,,,,,,,,,,,,,,,,,,,,,,,,,,,,,,,,,,,,,,,,,,,,,,,,,,,,,,,,,,,,,,,,,,,,,,,,,p_6,001,2024-05-08_12h00.01.482,speech_rate,2023.2.3,None,2024-05-08 12h04.26.910917 -0700,
,Someday_13_condition-5x.wav,Someday__Someday__Maybe__Unabridged___File_009_of_116_1.wav,After hanging up with my dad I think I hear Jane downstairs home from the set which means I might actually get something to eat before I get on the train I made it onto the actual wait list I call while coming down the stairs To see the famous nutritionist person Yes Also do I have a problem with cigarettes You seem to be doing just fine with them Jane says dumping a large brown bag onto the top of our never used oven with a thud She's wearing a trench coat we found at the Goodwill in Prospect Heights and her signature giant red vintage sunglasses,What is Jane's signature accessorize?,A. Red vintage sunglasses,B. A red trenchcoat,C. Red platform boots,D. A brown belt,A. Red vintage sunglasses,yes,6.074,,,,,,,,,,,,,0,2,2,2,,,,,,,,,,,,,,,,,,,,,,,,,,,,,,,,,,,,,,,,,,,,,,,,,,,,,258.1901692910001,260.783555083,0,,,1,2.583664458000044,2.583667500000047,0,,,0,,,,,,,,,,,,,,,,,,,,,,,,,,,,p_6,001,2024-05-08_12h00.01.482,speech_rate,2023.2.3,None,2024-05-08 12h04.26.910917 -0700,
,Someday_78_condition-2x.wav,Someday__Someday__Maybe__Unabridged___File_036_of_116_0.wav,And I would like to help you get started So he claps his hands together once for emphasis as if he's just pulled a rabbit out of his hat and wants to make sure the audience sees it I'm stunned He just said he wants to work with me I thought it would be so much harder to get anyone in the professional world to say that ever An actual real life agent wants to represent me I don't have to do this alone I'm shocked What is that,What is the narrator's reaction to the agent's offer?,A. She is excited and grateful,B. She is stunned,C. She is uninterested in the offer,D. She expected the offer,B. She is stunned,yes,14.085,,,,,,,,,,,,,0,3,3,3,0,0,0,0,0,0,0,0,281.77150908300007,,,,,,,,,,,,,,,261.600340833,261.6327184163333,261.62364875000003,275.7061939160001,275.718913583,275.730148666,275.93996441600007,275.93996441600007,280.16012375,280.956479833,7.616666666666666,4.402877499999931,1,[0.8049564999998893],[0.8049588749998975],,,,,,,281.76046666600007,281.77150908300007,281.77150908300007,291.77648154100007,A professional wants to work with someone,1,[10.012903000000051],[10.012906292000025],,,,,,,,,,,,,,,,,,,,,,260.78411241599997,260.790156625,260.790156625,260.790156625,261.60014341600004,1,[0.8156201250000095],[0.8156227089999675],280.95700445800003,280.966490625,281.75972779100005,1,[0.8021972500000629],[0.802202583000053],,,,,p_6,001,2024-05-08_12h00.01.482,speech_rate,2023.2.3,None,2024-05-08 12h04.26.910917 -0700,
,Someday_78_condition-2x.wav,Someday__Someday__Maybe__Unabridged___File_036_of_116_0.wav,And I would like to help you get started So he claps his hands together once for emphasis as if he's just pulled a rabbit out of his hat and wants to make sure the audience sees it I'm stunned He just said he wants to work with me I thought it would be so much harder to get anyone in the professional world to say that ever An actual real life agent wants to represent me I don't have to do this alone I'm shocked What is that,What is the narrator's reaction to the agent's offer?,A. She is excited and grateful,B. She is stunned,C. She is uninterested in the offer,D. She expected the offer,B. She is stunned,yes,14.085,,,,,,,,,,,,,0,3,3,3,0,0,0,0,,,,,,,,,,,,,,,,,,,,,,,,,,,,,,,,,,,,,,,,,,,,,,,,,,,,,,,,,,,,,,,,,,,,,,,,,,,,,,,,,,,,,,,,p_6,001,2024-05-08_12h00.01.482,speech_rate,2023.2.3,None,2024-05-08 12h04.26.910917 -0700,
,Someday_78_condition-2x.wav,Someday__Someday__Maybe__Unabridged___File_036_of_116_0.wav,And I would like to help you get started So he claps his hands together once for emphasis as if he's just pulled a rabbit out of his hat and wants to make sure the audience sees it I'm stunned He just said he wants to work with me I thought it would be so much harder to get anyone in the professional world to say that ever An actual real life agent wants to represent me I don't have to do this alone I'm shocked What is that,What is the narrator's reaction to the agent's offer?,A. She is excited and grateful,B. She is stunned,C. She is uninterested in the offer,D. She expected the offer,B. She is stunned,yes,14.085,,,,,,,,,,,,,0,3,3,3,,,,,,,,,,,,,,,,,,,,,,,,,,,,,,,,,,,,,,,,,,,,,,,,,,,,,291.77701483300007,298.152896875,0,,,1,6.3644052910000255,6.364408540999989,0,,,0,,,,,,,,,,,,,,,,,,,,,,,,,,,,p_6,001,2024-05-08_12h00.01.482,speech_rate,2023.2.3,None,2024-05-08 12h04.26.910917 -0700,
,Someday_39_condition-4x.wav,Someday__Someday__Maybe__Unabridged___File_021_of_116_1.wav,People who are admired for holding it together are not people who are about to get agents They're people who are recovering from cancer or undergoing a murder trial And I dropped a section I add hoping he'll say he didn't notice Yeah I know but I only know because I'm obsessed with that guy's work No one will dock you for that It's not exactly a glowing review but he doesn't seem totally horrified Still he's avoiding the thing I most want to know But when I fell I mean how bad was it,What does the narrator hope the person they are talking to will say?,A. That he didn't notice the mistake,B. That he noticed the dropped section,C. That he wants to be an agent,D. That he's obsessed with the narrator's work,A. That he didn't notice the mistake,yes,7.3075,,,,,,,,,,,,,0,4,4,4,0,0,0,0,0,0,0,0,311.81270629100004,,,,,,,,,,,,,,,299.269957041,299.2855597076667,299.283327375,306.58519050000007,306.59368829100003,306.60463208300007,306.82906608300004,306.82906608300004,309.14115845800006,310.186381333,2.8166666666666664,2.5117268749999084,1,[1.054618542000071],[1.054620624999984],,,,,,,311.801670208,311.81270629100004,311.81270629100004,316.54343229100004,murder trial,1,[4.738651375000018],[4.738654541999949],,,,,,,,,,,,,,,,,,,,,,298.1534659580001,298.16133983300006,298.16133983300006,298.16133983300006,299.269729,1,[1.1141827919999514],[1.1141853750000337],310.186883041,310.19134500000007,311.80095429100004,1,[1.6136797909999814],[1.6136823749999394],,,,,p_6,001,2024-05-08_12h00.01.482,speech_rate,2023.2.3,None,2024-05-08 12h04.26.910917 -0700,
,Someday_39_condition-4x.wav,Someday__Someday__Maybe__Unabridged___File_021_of_116_1.wav,People who are admired for holding it together are not people who are about to get agents They're people who are recovering from cancer or undergoing a murder trial And I dropped a section I add hoping he'll say he didn't notice Yeah I know but I only know because I'm obsessed with that guy's work No one will dock you for that It's not exactly a glowing review but he doesn't seem totally horrified Still he's avoiding the thing I most want to know But when I fell I mean how bad was it,What does the narrator hope the person they are talking to will say?,A. That he didn't notice the mistake,B. That he noticed the dropped section,C. That he wants to be an agent,D. That he's obsessed with the narrator's work,A. That he didn't notice the mistake,yes,7.3075,,,,,,,,,,,,,0,4,4,4,0,0,0,0,,,,,,,,,,,,,,,,,,,,,,,,,,,,,,,,,,,,,,,,,,,,,,,,,,,,,,,,,,,,,,,,,,,,,,,,,,,,,,,,,,,,,,,,p_6,001,2024-05-08_12h00.01.482,speech_rate,2023.2.3,None,2024-05-08 12h04.26.910917 -0700,
,Someday_39_condition-4x.wav,Someday__Someday__Maybe__Unabridged___File_021_of_116_1.wav,People who are admired for holding it together are not people who are about to get agents They're people who are recovering from cancer or undergoing a murder trial And I dropped a section I add hoping he'll say he didn't notice Yeah I know but I only know because I'm obsessed with that guy's work No one will dock you for that It's not exactly a glowing review but he doesn't seem totally horrified Still he's avoiding the thing I most want to know But when I fell I mean how bad was it,What does the narrator hope the person they are talking to will say?,A. That he didn't notice the mistake,B. That he noticed the dropped section,C. That he wants to be an agent,D. That he's obsessed with the narrator's work,A. That he didn't notice the mistake,yes,7.3075,,,,,,,,,,,,,0,4,4,4,,,,,,,,,,,,,,,,,,,,,,,,,,,,,,,,,,,,,,,,,,,,,,,,,,,,,316.543906291,330.194253291,0,,,1,13.63992108299999,13.639923833000012,0,,,0,,,,,,,,,,,,,,,,,,,,,,,,,,,,p_6,001,2024-05-08_12h00.01.482,speech_rate,2023.2.3,None,2024-05-08 12h04.26.910917 -0700,
,Someday_45_condition-2x.wav,Someday__Someday__Maybe__Unabridged___File_024_of_116_1.wav,She's one of my best friends in class but I wonder sometimes how she feels about having gone from the lead of a hit TV show to commercials which is mainly what she does now and not the kind where she's playing Dina Shannon formerly of the hit show There's Pierre but just a regular actor pretending to like one brand of orange juice over another Anything she says flicking an ash on the ground Um yeah actually I got two callbacks with agencies Yeah she says you only need one,"What show did Dina, the actress, use to lead?",A. Friends,B. There's Pierre,C. Cordelia Biscayne,D. The House of Mirth,B. There's Pierre,yes,14.51003125,,,,,,,,,,,,,0,5,5,5,0,0,0,0,0,0,0,0,352.48299258300005,,,,,,,,,,,,,,,331.0043835,331.02003562466666,331.025010458,345.527036833,345.538870041,345.550145875,345.7587170830001,345.7587170830001,349.47616095800004,350.91549825000004,6.991666666666667,4.727012833000003,1,[1.4488114170000017],[1.4488136669999676],,,,,,,352.471905416,352.48299258300005,352.48299258300005,366.68044975,someone got two callbacks from agencies but only needs one,1,[14.205156458000033],[14.205159916999946],,,,,,,,,,,,,,,,,,,,,,330.194724208,330.20153133300005,330.20153133300005,330.20153133300005,331.00415425000006,1,[0.8077650830000493],[0.8077677910000602],350.916017916,350.93682879100004,352.471327375,1,[1.5548650000000634],[1.554867833000003],,,,,p_6,001,2024-05-08_12h00.01.482,speech_rate,2023.2.3,None,2024-05-08 12h04.26.910917 -0700,
,Someday_45_condition-2x.wav,Someday__Someday__Maybe__Unabridged___File_024_of_116_1.wav,She's one of my best friends in class but I wonder sometimes how she feels about having gone from the lead of a hit TV show to commercials which is mainly what she does now and not the kind where she's playing Dina Shannon formerly of the hit show There's Pierre but just a regular actor pretending to like one brand of orange juice over another Anything she says flicking an ash on the ground Um yeah actually I got two callbacks with agencies Yeah she says you only need one,"What show did Dina, the actress, use to lead?",A. Friends,B. There's Pierre,C. Cordelia Biscayne,D. The House of Mirth,B. There's Pierre,yes,14.51003125,,,,,,,,,,,,,0,5,5,5,0,0,0,0,,,,,,,,,,,,,,,,,,,,,,,,,,,,,,,,,,,,,,,,,,,,,,,,,,,,,,,,,,,,,,,,,,,,,,,,,,,,,,,,,,,,,,,,p_6,001,2024-05-08_12h00.01.482,speech_rate,2023.2.3,None,2024-05-08 12h04.26.910917 -0700,
,Someday_45_condition-2x.wav,Someday__Someday__Maybe__Unabridged___File_024_of_116_1.wav,She's one of my best friends in class but I wonder sometimes how she feels about having gone from the lead of a hit TV show to commercials which is mainly what she does now and not the kind where she's playing Dina Shannon formerly of the hit show There's Pierre but just a regular actor pretending to like one brand of orange juice over another Anything she says flicking an ash on the ground Um yeah actually I got two callbacks with agencies Yeah she says you only need one,"What show did Dina, the actress, use to lead?",A. Friends,B. There's Pierre,C. Cordelia Biscayne,D. The House of Mirth,B. There's Pierre,yes,14.51003125,,,,,,,,,,,,,0,5,5,5,,,,,,,,,,,,,,,,,,,,,,,,,,,,,,,,,,,,,,,,,,,,,,,,,,,,,366.680971041,376.85714429100005,0,,,1,10.165793000000008,10.165795875000072,0,,,0,,,,,,,,,,,,,,,,,,,,,,,,,,,,p_6,001,2024-05-08_12h00.01.482,speech_rate,2023.2.3,None,2024-05-08 12h04.26.910917 -0700,
,Someday_32_condition-3x.wav,Someday__Someday__Maybe__Unabridged___File_018_of_116_0.wav,Navigating the crowd on the sidewalk is a challenge I like I'm running without touching anyone else on the street I'm a character in a human video game keeping my bubble of space from being invaded eyeing an open slot on the sidewalk speeding up to grab it before someone else does slowing down until I see another space working together with the strangers on the street as though we're all performing an elaborate dance perfectly choreographed for thousands of people I'm happy A guy I like got my number,How does the narrator feel while navigating the crowded sidewalk?,A. Anxious,B. Happy,C. Frustrated,D. Confused,B. Happy,yes,10.90125,,,,,,,,,,,,,0,6,6,6,0,0,0,0,0,0,0,0,395.590130791,,,,,,,,,,,,,,,378.02385008300007,378.0394074166667,378.03990354100006,388.94037004100005,388.941760208,388.963549083,389.19625495800005,389.19625495800005,391.689085708,392.85149791599997,8.016666666666667,2.694962333000035,1,[1.1757051249999222],[1.1757072089999383],,,,,,,395.56227616600006,395.590130791,395.590130791,425.276241291,"this person acts like they are in a video game, imagining a personal bubble when walking. They are happy the guy got their number",1,[29.710856374999935],[29.710859667000022],,,,,,,,,,,,,,,,,,,,,,376.85774170800005,376.86597975000006,376.86597975000006,376.86597975000006,378.023605333,1,[1.1635657909999964],[1.1635684999999967],392.8520075,392.872490458,395.561502583,1,[2.7088687910001],[2.708875583000008],,,,,p_6,001,2024-05-08_12h00.01.482,speech_rate,2023.2.3,None,2024-05-08 12h04.26.910917 -0700,
,Someday_32_condition-3x.wav,Someday__Someday__Maybe__Unabridged___File_018_of_116_0.wav,Navigating the crowd on the sidewalk is a challenge I like I'm running without touching anyone else on the street I'm a character in a human video game keeping my bubble of space from being invaded eyeing an open slot on the sidewalk speeding up to grab it before someone else does slowing down until I see another space working together with the strangers on the street as though we're all performing an elaborate dance perfectly choreographed for thousands of people I'm happy A guy I like got my number,How does the narrator feel while navigating the crowded sidewalk?,A. Anxious,B. Happy,C. Frustrated,D. Confused,B. Happy,yes,10.90125,,,,,,,,,,,,,0,6,6,6,0,0,0,0,,,,,,,,,,,,,,,,,,,,,,,,,,,,,,,,,,,,,,,,,,,,,,,,,,,,,,,,,,,,,,,,,,,,,,,,,,,,,,,,,,,,,,,,p_6,001,2024-05-08_12h00.01.482,speech_rate,2023.2.3,None,2024-05-08 12h04.26.910917 -0700,
,Someday_32_condition-3x.wav,Someday__Someday__Maybe__Unabridged___File_018_of_116_0.wav,Navigating the crowd on the sidewalk is a challenge I like I'm running without touching anyone else on the street I'm a character in a human video game keeping my bubble of space from being invaded eyeing an open slot on the sidewalk speeding up to grab it before someone else does slowing down until I see another space working together with the strangers on the street as though we're all performing an elaborate dance perfectly choreographed for thousands of people I'm happy A guy I like got my number,How does the narrator feel while navigating the crowded sidewalk?,A. Anxious,B. Happy,C. Frustrated,D. Confused,B. Happy,yes,10.90125,,,,,,,,,,,,,0,6,6,6,,,,,,,,,,,,,,,,,,,,,,,,,,,,,,,,,,,,,,,,,,,,,,,,,,,,,425.276743583,427.2593286250001,0,,,1,1.9737776660000463,1.9737804999999753,0,,,0,,,,,,,,,,,,,,,,,,,,,,,,,,,,p_6,001,2024-05-08_12h00.01.482,speech_rate,2023.2.3,None,2024-05-08 12h04.26.910917 -0700,
,Someday_42_condition.wav,Someday__Someday__Maybe__Unabridged___File_023_of_116_0.wav,There will be another showcase next year but my deadline expires way before then and I refuse to break it I refuse to become one of those people who can't accept the truth that it just isn't going to happen for them Something cold grabs my heart and my mouth falls open Maybe I've already become one of them while I wasn't looking Maybe I can't accept the truth that it just isn't going to happen for me Maybe I already know but I can't admit it How many more days of waiting do I really need before I have to face facts,When will be the next showcase?,A. Next year,B. Next month,C. Next week,D. Next fall,A. Next year,yes,29.42996875,,,,,,,,,,,,,0,7,7,7,0,0,0,0,0,0,0,0,461.772931125,,,,,,,,,,,,,,,427.84927766600003,427.898658625,427.88843700000007,457.32773791600005,457.330445208,457.351898625,457.625504458,457.625504458,460.242986333,460.9661735000001,5.283333333333333,2.862597959000027,1,[0.7361590000000433],[0.7361613340000304],,,,,,,461.7611631660001,461.772931125,461.772931125,475.10289187500007,someone is not sure how long they need to hear back from something,1,[13.338309457999912],[13.338316249999934],,,,,,,,,,,,,,,,,,,,,,427.25985404100004,427.2670692500001,427.2670692500001,427.2670692500001,427.84910112500006,1,[0.5873291660000177],[0.5873316250000471],460.9666983750001,460.976430458,461.760522916,1,[0.7933296250000694],[0.7933322500000486],,,,,p_6,001,2024-05-08_12h00.01.482,speech_rate,2023.2.3,None,2024-05-08 12h04.26.910917 -0700,
,Someday_42_condition.wav,Someday__Someday__Maybe__Unabridged___File_023_of_116_0.wav,There will be another showcase next year but my deadline expires way before then and I refuse to break it I refuse to become one of those people who can't accept the truth that it just isn't going to happen for them Something cold grabs my heart and my mouth falls open Maybe I've already become one of them while I wasn't looking Maybe I can't accept the truth that it just isn't going to happen for me Maybe I already know but I can't admit it How many more days of waiting do I really need before I have to face facts,When will be the next showcase?,A. Next year,B. Next month,C. Next week,D. Next fall,A. Next year,yes,29.42996875,,,,,,,,,,,,,0,7,7,7,0,0,0,0,,,,,,,,,,,,,,,,,,,,,,,,,,,,,,,,,,,,,,,,,,,,,,,,,,,,,,,,,,,,,,,,,,,,,,,,,,,,,,,,,,,,,,,,p_6,001,2024-05-08_12h00.01.482,speech_rate,2023.2.3,None,2024-05-08 12h04.26.910917 -0700,
,Someday_42_condition.wav,Someday__Someday__Maybe__Unabridged___File_023_of_116_0.wav,There will be another showcase next year but my deadline expires way before then and I refuse to break it I refuse to become one of those people who can't accept the truth that it just isn't going to happen for them Something cold grabs my heart and my mouth falls open Maybe I've already become one of them while I wasn't looking Maybe I can't accept the truth that it just isn't going to happen for me Maybe I already know but I can't admit it How many more days of waiting do I really need before I have to face facts,When will be the next showcase?,A. Next year,B. Next month,C. Next week,D. Next fall,A. Next year,yes,29.42996875,,,,,,,,,,,,,0,7,7,7,,,,,,,,,,,,,,,,,,,,,,,,,,,,,,,,,,,,,,,,,,,,,,,,,,,,,475.10331337499997,481.33939058300007,0,,,0,,,1,6.2270805829999745,6.2270836249999775,0,,,,,,,,,,,,,,,,,,,,,,,,,,,,p_6,001,2024-05-08_12h00.01.482,speech_rate,2023.2.3,None,2024-05-08 12h04.26.910917 -0700,
,Someday_15_condition-2x.wav,Someday__Someday__Maybe__Unabridged___File_009_of_116_3.wav,Whenever Jane talks about Russell Blakely all I can picture is that line everybody was quoting from his last movie Steel Entrapment where he calls out to Cordelia Biscayne honey I'm home while hanging by one hand from the landing gear of a helicopter bare chested Today's special is from the set of Kill Time an assortment of bagels that were only out on the craft service table for about three hours but are not sadly accompanied by cream cheese and that Chinese rice thing that Dan likes which I don't think was too aggressively sneezed upon,What does Russell Blakely call out to Cordelia Biscayne in the movie Steel Entrapment?,A. "Sweetie I'm out",B. "Baby I'm back",C. "Darling I've arrived",D. "Honey I'm home",D. "Honey I'm home",yes,14.675,,,,,,,,,,,,,0,8,8,8,0,0,0,0,0,0,0,0,501.17978400000004,,,,,,,,,,,,,,,481.969052166,481.9850894166667,481.9898658750001,496.66320175,496.664687416,496.675910125,496.907843875,496.907843875,499.751387208,500.375051666,4.341666666666667,3.0513590830000794,1,[0.6328474590000042],[0.6328497920000018],,,,,,,501.16795745800005,501.17978400000004,501.17978400000004,522.172846541,someone was saying honey  i'm home with bagels and cream cheese,1,[21.00131829199995],[21.001321458000007],,,,,,,,,,,,,,,,,,,,,,481.339958,481.346150458,481.346150458,481.346150458,481.96887104100006,1,[0.6284844160001057],[0.6284869580000532],500.37553408300005,500.380558208,501.167184208,1,[0.7907919170000923],[0.7908060000000887],,,,,p_6,001,2024-05-08_12h00.01.482,speech_rate,2023.2.3,None,2024-05-08 12h04.26.910917 -0700,
,Someday_15_condition-2x.wav,Someday__Someday__Maybe__Unabridged___File_009_of_116_3.wav,Whenever Jane talks about Russell Blakely all I can picture is that line everybody was quoting from his last movie Steel Entrapment where he calls out to Cordelia Biscayne honey I'm home while hanging by one hand from the landing gear of a helicopter bare chested Today's special is from the set of Kill Time an assortment of bagels that were only out on the craft service table for about three hours but are not sadly accompanied by cream cheese and that Chinese rice thing that Dan likes which I don't think was too aggressively sneezed upon,What does Russell Blakely call out to Cordelia Biscayne in the movie Steel Entrapment?,A. "Sweetie I'm out",B. "Baby I'm back",C. "Darling I've arrived",D. "Honey I'm home",D. "Honey I'm home",yes,14.675,,,,,,,,,,,,,0,8,8,8,0,0,0,0,,,,,,,,,,,,,,,,,,,,,,,,,,,,,,,,,,,,,,,,,,,,,,,,,,,,,,,,,,,,,,,,,,,,,,,,,,,,,,,,,,,,,,,,p_6,001,2024-05-08_12h00.01.482,speech_rate,2023.2.3,None,2024-05-08 12h04.26.910917 -0700,
,Someday_15_condition-2x.wav,Someday__Someday__Maybe__Unabridged___File_009_of_116_3.wav,Whenever Jane talks about Russell Blakely all I can picture is that line everybody was quoting from his last movie Steel Entrapment where he calls out to Cordelia Biscayne honey I'm home while hanging by one hand from the landing gear of a helicopter bare chested Today's special is from the set of Kill Time an assortment of bagels that were only out on the craft service table for about three hours but are not sadly accompanied by cream cheese and that Chinese rice thing that Dan likes which I don't think was too aggressively sneezed upon,What does Russell Blakely call out to Cordelia Biscayne in the movie Steel Entrapment?,A. "Sweetie I'm out",B. "Baby I'm back",C. "Darling I've arrived",D. "Honey I'm home",D. "Honey I'm home",yes,14.675,,,,,,,,,,,,,0,8,8,8,,,,,,,,,,,,,,,,,,,,,,,,,,,,,,,,,,,,,,,,,,,,,,,,,,,,,522.17335875,524.573179666,0,,,0,,,0,,,1,2.388083750000078,2.388086792000081,,,,,,,,,,,,,,,,,,,,,,,,,,p_6,001,2024-05-08_12h00.01.482,speech_rate,2023.2.3,None,2024-05-08 12h04.26.910917 -0700,
,Someday_70_condition-4x.wav,Someday__Someday__Maybe__Unabridged___File_033_of_116_4.wav,Um yes sure thanks again I'm not sure whether Carol is generally grumpy or if I made her that way I thumb through the copy of the National Enquirer Michael goes after Elvis's 200 million Cordelia Biscayne shopping spree Candice Bergen deathbed drama I wish I'd brought something else to read This magazine makes my stomach hurt So many people on a set to get to know I think while skimming Princess dies love letters So many names,What does the narrator think about Carol?,A. That she is grumpy,B. That she is friendly,C. That she is depressed,D. That she is lively,A. That she is grumpy,no,7.3875,,,,,,,,,,,,,0,9,9,9,,,,,,,,,524.581772708,,,,,,,,,,,,,,,525.421517958,525.4370959576667,525.436355958,532.8210162080001,532.8260280000001,532.836450041,533.085108666,533.085108666,535.163948291,535.688089708,2.216666666666667,2.299724500000025,1,[0.5374060420000433],[0.5374082499999986],,,,,,,,,,,,,,,535.6885553330001,541.36638925,0,,,0,,,0,,,1,5.669669416000033,5.669672125000034,,,,,,,,524.57375625,524.581772708,524.581772708,524.581772708,525.421307125,1,[0.8453446250000525],[0.8453473330000634],,,,,,,,,,,p_6,001,2024-05-08_12h00.01.482,speech_rate,2023.2.3,None,2024-05-08 12h04.26.910917 -0700,
,Someday_56_condition-2x.wav,Someday__Someday__Maybe__Unabridged___File_027_of_116_4.wav,I'm not sure how to explain it to Everett in a way I think she'll understand What do I say Oh fine thanks Today was great but it doesn't take away my general fear that I'm not now nor will I ever be good enough Oh fine thanks There's a silence as we both sip our tea My whole family just went to see the Phantom of the Opera Everett says Have you seen it No I haven't Oh it's wonderful So magical There's a giant chandelier that appears right out of the sky,What are Everett and the narrator drinking while talking to each other?,A. Coffee,B. Wine,C. Tea,D. Beer,C. Tea,yes,14.685,,,,,,,,,,,,,0,10,10,10,0,0,0,0,0,0,0,0,562.2849307910001,,,,,,,,,,,,,,,541.9498515,541.9654256246666,541.969484666,556.6728393330001,556.654825125,556.665095583,556.869833208,556.869833208,560.293118166,561.1667522910001,4.766666666666667,3.6009582499999624,1,[0.8825989579999032],[0.8826012079999828],,,,,,,562.273717666,562.2849307910001,562.2849307910001,577.468355833,"they are talking about shows, and somebody is depressed",1,[15.191383208000047],[15.19138662499995],,,,,,,,,,,,,,,,,,,,,,541.366871541,541.3736354160001,541.3736354160001,541.3736354160001,541.949593291,1,[0.5808717919999253],[0.5808743750000076],561.167257458,561.1719410410001,562.27302375,1,[1.105341707999969],[1.1053442079999058],,,,,p_6,001,2024-05-08_12h00.01.482,speech_rate,2023.2.3,None,2024-05-08 12h04.26.910917 -0700,
,Someday_56_condition-2x.wav,Someday__Someday__Maybe__Unabridged___File_027_of_116_4.wav,I'm not sure how to explain it to Everett in a way I think she'll understand What do I say Oh fine thanks Today was great but it doesn't take away my general fear that I'm not now nor will I ever be good enough Oh fine thanks There's a silence as we both sip our tea My whole family just went to see the Phantom of the Opera Everett says Have you seen it No I haven't Oh it's wonderful So magical There's a giant chandelier that appears right out of the sky,What are Everett and the narrator drinking while talking to each other?,A. Coffee,B. Wine,C. Tea,D. Beer,C. Tea,yes,14.685,,,,,,,,,,,,,0,10,10,10,0,0,0,0,,,,,,,,,,,,,,,,,,,,,,,,,,,,,,,,,,,,,,,,,,,,,,,,,,,,,,,,,,,,,,,,,,,,,,,,,,,,,,,,,,,,,,,,p_6,001,2024-05-08_12h00.01.482,speech_rate,2023.2.3,None,2024-05-08 12h04.26.910917 -0700,
,Someday_56_condition-2x.wav,Someday__Someday__Maybe__Unabridged___File_027_of_116_4.wav,I'm not sure how to explain it to Everett in a way I think she'll understand What do I say Oh fine thanks Today was great but it doesn't take away my general fear that I'm not now nor will I ever be good enough Oh fine thanks There's a silence as we both sip our tea My whole family just went to see the Phantom of the Opera Everett says Have you seen it No I haven't Oh it's wonderful So magical There's a giant chandelier that appears right out of the sky,What are Everett and the narrator drinking while talking to each other?,A. Coffee,B. Wine,C. Tea,D. Beer,C. Tea,yes,14.685,,,,,,,,,,,,,0,10,10,10,,,,,,,,,,,,,,,,,,,,,,,,,,,,,,,,,,,,,,,,,,,,,,,,,,,,,577.4688566660001,581.9954405,0,,,1,4.518136166999966,4.51813904200003,0,,,0,,,,,,,,,,,,,,,,,,,,,,,,,,,,p_6,001,2024-05-08_12h00.01.482,speech_rate,2023.2.3,None,2024-05-08 12h04.26.910917 -0700,
,Someday_41_condition-3x.wav,Someday__Someday__Maybe__Unabridged___File_022_of_116_0.wav,And even if I give it more thought and someday decide I'm very definitely against wearing the same animal that brings Easter baskets to little children it's not really like me to judge someone else for her rabbit related choices Penelope's face falls and she looks down at her jacket You know she says it is real I wasn't sure about it myself but it was my mother's and so I figured it's vintage She trails off and absently runs her fingers over the silky white collar,What does Penelope say about her rabbit fur jacket?,A. It's fake,B. It's vintage,C. It's for Easter,D. It's her sister's,B. It's vintage,yes,10.8075,,,,,,,,,,,,,0,11,11,11,0,0,0,0,0,0,0,0,597.779705333,,,,,,,,,,,,,,,583.2880576250001,583.3012115826667,583.305684625,594.107808708,594.1179752080001,594.129136291,594.3714086250001,594.3714086250001,596.341222958,597.0965185,8.2,2.1870855409999876,1,[0.7646544579999954],[0.7646566669999402],,,,,,,597.768321083,597.779705333,597.779705333,624.0046637500001,someone is wearing a new coat that was their mother's and resolves uncertainty about whether it is good,1,[26.23305829200001],[26.233061125000063],,,,,,,,,,,,,,,,,,,,,,581.996045,582.0039497500001,582.0039497500001,582.0039497500001,583.2878027080001,1,[1.2889681249999967],[1.2889729999999417],597.0970885830001,597.1173590000001,597.767701041,1,[0.6701599579999993],[0.6701630000000023],,,,,p_6,001,2024-05-08_12h00.01.482,speech_rate,2023.2.3,None,2024-05-08 12h04.26.910917 -0700,
,Someday_41_condition-3x.wav,Someday__Someday__Maybe__Unabridged___File_022_of_116_0.wav,And even if I give it more thought and someday decide I'm very definitely against wearing the same animal that brings Easter baskets to little children it's not really like me to judge someone else for her rabbit related choices Penelope's face falls and she looks down at her jacket You know she says it is real I wasn't sure about it myself but it was my mother's and so I figured it's vintage She trails off and absently runs her fingers over the silky white collar,What does Penelope say about her rabbit fur jacket?,A. It's fake,B. It's vintage,C. It's for Easter,D. It's her sister's,B. It's vintage,yes,10.8075,,,,,,,,,,,,,0,11,11,11,0,0,0,0,,,,,,,,,,,,,,,,,,,,,,,,,,,,,,,,,,,,,,,,,,,,,,,,,,,,,,,,,,,,,,,,,,,,,,,,,,,,,,,,,,,,,,,,p_6,001,2024-05-08_12h00.01.482,speech_rate,2023.2.3,None,2024-05-08 12h04.26.910917 -0700,
,Someday_41_condition-3x.wav,Someday__Someday__Maybe__Unabridged___File_022_of_116_0.wav,And even if I give it more thought and someday decide I'm very definitely against wearing the same animal that brings Easter baskets to little children it's not really like me to judge someone else for her rabbit related choices Penelope's face falls and she looks down at her jacket You know she says it is real I wasn't sure about it myself but it was my mother's and so I figured it's vintage She trails off and absently runs her fingers over the silky white collar,What does Penelope say about her rabbit fur jacket?,A. It's fake,B. It's vintage,C. It's for Easter,D. It's her sister's,B. It's vintage,yes,10.8075,,,,,,,,,,,,,0,11,11,11,,,,,,,,,,,,,,,,,,,,,,,,,,,,,,,,,,,,,,,,,,,,,,,,,,,,,624.0051147080001,626.204787083,0,,,1,2.19005637500004,2.190058915999998,0,,,0,,,,,,,,,,,,,,,,,,,,,,,,,,,,p_6,001,2024-05-08_12h00.01.482,speech_rate,2023.2.3,None,2024-05-08 12h04.26.910917 -0700,
,Someday_50_condition-5x.wav,Someday__Someday__Maybe__Unabridged___File_025_of_116_3.wav,It was a high concept half hour pilot he said Cutting edge was the exact phrase he used I believe He said it had taken some convincing to get me an audition since I had no television experience but they'd agreed to see me So I read the script and it didn't seem like a TV show to me but I'm used to reading plays where anything can happen in the world of someone's memory or whatever You were used to reading things that were abstract Leighton says Or imaginative not totally set in reality yes So I'm picturing what it could be if done correctly,What was the description given for the pilot in the story?,A. A low-budget independent film,B. A high-concept half-hour pilot,C. A traditional TV show format,D. A full-length feature film,B. A high-concept half-hour pilot,no,5.956,,,,,,,,,,,,,0,12,12,12,,,,,,,,,626.212096791,,,,,,,,,,,,,,,626.854193666,626.8702162496667,626.866534916,632.837652833,632.8398140830001,632.850624875,633.111721625,633.111721625,635.208800291,636.888715291,2.0083333333333333,3.1314051250000148,1,[1.6895799579999675],[1.689582249999944],,,,,,,,,,,,,,,636.8891593330001,638.788191958,0,,,0,,,1,1.8896438749999334,1.8896468749999258,0,,,,,,,,,,626.2052744160001,626.212096791,626.212096791,626.212096791,626.8540118750001,1,[0.6472241669999903],[0.6472267499999589],,,,,,,,,,,p_6,001,2024-05-08_12h00.01.482,speech_rate,2023.2.3,None,2024-05-08 12h04.26.910917 -0700,
,Someday_101_condition-2x.wav,Someday__Someday__Maybe__Unabridged___File_044_of_116_3.wav,Okay great I say too forcefully So should I do it into the camera or I'm looking around vacantly not sure where to focus somehow not finding where the lens is Ah there's no camera here today since there's no scene exactly Tell you what why don't you just do it for Arthur here he says pointing to a painfully thin man with red hair and freckles to his left who looks not exactly happy to have been chosen as my target Okay great,Why won't the narrator have to perform in front of a camera during the audition?,A. Because there is no camera available,B. Because the scene doesn't require it,C. Because Arthur will perform it instead,D. Because the narrator refused to do it,B. Because the scene doesn't require it,yes,14.87,,,,,,,,,,,,,0,13,13,13,0,0,0,0,0,0,0,0,658.58456375,,,,,,,,,,,,,,,639.3387814160001,639.3708969993334,639.360271125,654.22289125,654.2430316250001,654.264220041,654.475339208,654.475339208,656.932089916,657.777719625,7.416666666666667,2.64228433400001,1,[0.8550747089999504],[0.8550768750000088],,,,,,,658.573249,658.58456375,658.58456375,682.541599166,an audition is happening and they are asking where to direct their attention to as if there is a camera,1,[23.965111999999863],[23.965114916999937],,,,,,,,,,,,,,,,,,,,,,638.788700916,638.7939642910001,638.7939642910001,638.7939642910001,639.33856125,1,[0.5493565419999413],[0.549359332999984],657.778329,657.78761925,658.572565541,1,[0.7937895410000237],[0.7937925830000268],,,,,p_6,001,2024-05-08_12h00.01.482,speech_rate,2023.2.3,None,2024-05-08 12h04.26.910917 -0700,
,Someday_101_condition-2x.wav,Someday__Someday__Maybe__Unabridged___File_044_of_116_3.wav,Okay great I say too forcefully So should I do it into the camera or I'm looking around vacantly not sure where to focus somehow not finding where the lens is Ah there's no camera here today since there's no scene exactly Tell you what why don't you just do it for Arthur here he says pointing to a painfully thin man with red hair and freckles to his left who looks not exactly happy to have been chosen as my target Okay great,Why won't the narrator have to perform in front of a camera during the audition?,A. Because there is no camera available,B. Because the scene doesn't require it,C. Because Arthur will perform it instead,D. Because the narrator refused to do it,B. Because the scene doesn't require it,yes,14.87,,,,,,,,,,,,,0,13,13,13,0,0,0,0,,,,,,,,,,,,,,,,,,,,,,,,,,,,,,,,,,,,,,,,,,,,,,,,,,,,,,,,,,,,,,,,,,,,,,,,,,,,,,,,,,,,,,,,p_6,001,2024-05-08_12h00.01.482,speech_rate,2023.2.3,None,2024-05-08 12h04.26.910917 -0700,
,Someday_101_condition-2x.wav,Someday__Someday__Maybe__Unabridged___File_044_of_116_3.wav,Okay great I say too forcefully So should I do it into the camera or I'm looking around vacantly not sure where to focus somehow not finding where the lens is Ah there's no camera here today since there's no scene exactly Tell you what why don't you just do it for Arthur here he says pointing to a painfully thin man with red hair and freckles to his left who looks not exactly happy to have been chosen as my target Okay great,Why won't the narrator have to perform in front of a camera during the audition?,A. Because there is no camera available,B. Because the scene doesn't require it,C. Because Arthur will perform it instead,D. Because the narrator refused to do it,B. Because the scene doesn't require it,yes,14.87,,,,,,,,,,,,,0,13,13,13,,,,,,,,,,,,,,,,,,,,,,,,,,,,,,,,,,,,,,,,,,,,,,,,,,,,,682.542082125,688.884886458,1,6.331097166000063,6.331102707999889,0,,,0,,,0,,,,,,,,,,,,,,,,,,,,,,,,,,,,p_6,001,2024-05-08_12h00.01.482,speech_rate,2023.2.3,None,2024-05-08 12h04.26.910917 -0700,
,Someday_107_condition-2x.wav,Someday__Someday__Maybe__Unabridged___File_048_of_116_0.wav,One more thing from last night Yeah Apparently We're not supposed to wash our jeans anymore the wardrobe lady told me We are only supposed to dry clean them What That's insane Yep We're supposed to buy jeans really tight as tight as we can squeeze into so all the fat gets compressed into as little space as possible Then we want the fat compression level to stay that way for as long as it can right Well washing jeans makes them softer and baggier and lessens the fat compression quotient,Why are people advised not to wash their jeans anymore?,A. To save water and be more environmentally friendly,B. To maintain the tight fit and fat compression,C. To reduce laundry expenses,D. To prevent jeans from fading,B. To maintain the tight fit and fat compression,no,14.5,,,,,,,,,,,,,0,14,14,14,,,,,,,,,688.8934192500001,,,,,,,,,,,,,,,689.6640385830001,689.6796278746667,689.6836772080001,704.172997833,704.1824299580001,704.193006125,704.444385041,704.444385041,706.5586402910001,707.2262600829999,9.083333333333334,2.341237249999949,1,[0.6769930839998324],[0.676995333999912],,,,,,,,,,,,,,,707.226743166,712.175674333,0,,,1,4.939784583000119,4.9397872500001085,0,,,0,,,,,,,,,,688.8855093750001,688.8934192500001,688.8934192500001,688.8934192500001,689.663805333,1,[0.7764157090000481],[0.7764182500000061],,,,,,,,,,,p_6,001,2024-05-08_12h00.01.482,speech_rate,2023.2.3,None,2024-05-08 12h04.26.910917 -0700,
,Someday_96_condition-3x.wav,Someday__Someday__Maybe__Unabridged___File_042_of_116_0.wav,My point is about the competitive thing I've always naturally made everything a competition in a way so I already know I'm tough and it actually comes sort of easily to me And I'm not afraid to be hurt or rejected because I have naturally low self esteem anyway So I always expect the worst which is weird because I also have a vision for myself where I can totally picture succeeding well almost totally on a good day And I'm quick and I'm sure that whatever I don't know yet I can learn quickly because I'm quick which I know I just said because I'm quick Ha ha get it,How does the narrator feel about competition and their ability to succeed?,A. She is afraid of competition,B. She is quick to learn and not afraid of failure,C. She has low self-esteem and avoids competition,D. She believes in the concept of competition,B. She is quick to learn and not afraid of failure,no,10.68,,,,,,,,,,,,,0,15,15,15,,,,,,,,,712.1834431249999,,,,,,,,,,,,,,,712.7654762500001,712.7810771246666,712.7819118330001,723.4593903750001,723.461500375,723.472081875,723.677294458,723.677294458,725.6852425,726.244852458,8.975,2.1866887500000303,1,[0.5690114999999878],[0.569013792000078],,,,,,,,,,,,,,,726.245319375,739.2173666660001,0,,,0,,,0,,,1,12.962493875000064,12.9624967499999,,,,,,,,712.1762421660001,712.1834431249999,712.1834431249999,712.1834431249999,712.765255041,1,[0.5873079169998618],[0.587310541999841],,,,,,,,,,,p_6,001,2024-05-08_12h00.01.482,speech_rate,2023.2.3,None,2024-05-08 12h04.26.910917 -0700,
,Someday_115_condition-2x.wav,Someday__Someday__Maybe__Unabridged___File_051_of_116_2.wav,All those people can't just be walking around starving and happening to look great all the time They must know something that the rest of us don't Or worse maybe there isn't a trick Maybe they are walking around hungry all the time Maybe that's the difference between being successful or unsuccessful Maybe I'm too weak I'm too concerned with feeling good to be willing to feel as bad as I should to be successful Why would feeling good be bad People spend their lives trying to feel good You're not supposed to walk around miserable all the time,What is the narrator's concern about the successful people she sees?,A. They are always happy,B. They are always starving themselves,C. They know a secret for good acting,D. They are too weak to succeed,B. They are always starving themselves,no,14.77,,,,,,,,,,,,,0,16,16,16,,,,,,,,,739.2247300000001,,,,,,,,,,,,,,,739.8126199579999,739.8432815833332,739.83260275,754.61142225,754.615642041,754.626887916,754.829489916,754.829489916,757.265973666,758.2738288749999,8.75,3.0811647079999602,1,[1.0164953329999662],[1.0164981249999983],,,,,,,,,,,,,,,758.274286458,772.319107041,0,,,1,14.03544399999987,14.035446583999828,0,,,0,,,,,,,,,,739.2178383749999,739.2247300000001,739.2247300000001,739.2247300000001,739.8122065,1,[0.5922993750000387],[0.5923085830002037],,,,,,,,,,,p_6,001,2024-05-08_12h00.01.482,speech_rate,2023.2.3,None,2024-05-08 12h04.26.910917 -0700,
,Someday_111_condition.wav,Someday__Someday__Maybe__Unabridged___File_048_of_116_4.wav,Where would he have gotten the picture You see them on the street sometimes I don't know I'm just saying It's occurred to me Because other than him that one very famous person do you recognize anyone else on that wall Well there's that cast photo from Cats with all the people in their cat costumes I don't recognize them individually but as a group they seem authentic But besides the somewhat believable cats Wait yes There's that actress My mother loved her She was on that detective show in the 60s,What are the narrator and her friend discussing on the wall?,A. A picture of a famous person,B. A cast photo from the musical Cats,C. A detective show from the '60s,D. Pictures of people on the street,A. A picture of a famous person,no,29.46003125,,,,,,,,,,,,,0,17,17,17,,,,,,,,,772.3266094160001,,,,,,,,,,,,,,,773.446227333,773.495154916,773.486075625,802.936505291,802.96576925,802.9871573749999,803.1895836660001,803.1895836660001,806.31912375,806.97510575,2.8916666666666666,3.307050375000017,1,[0.6654827090001163],[0.6654849589999685],,,,,,,,,,,,,,,806.9755331250001,813.7917311660001,0,,,1,6.806370374999915,6.806373124999936,0,,,0,,,,,,,,,,772.319556291,772.3266094160001,772.3266094160001,772.3266094160001,773.445988166,1,[1.1248663749997831],[1.1248690420000003],,,,,,,,,,,p_6,001,2024-05-08_12h00.01.482,speech_rate,2023.2.3,None,2024-05-08 12h04.26.910917 -0700,
,Someday_46_condition.wav,Someday__Someday__Maybe__Unabridged___File_024_of_116_2.wav,I almost quit show business tonight I say a little breathless still astonished to have gone from complete despair to something like euphoria in such a short time Again You just quit two weeks ago I did You're a sensitive kid she says laughing That's okay you'll get tougher Let's have non farewell to show business drinks instead I'm meeting Leighton at Joe Allen Want to join Dina and I sit at the glossy wood bar at Joe Allen crowded with actors whose shows have just let out and patrons who've come from the theater,What is Dina inviting the narrator to?,A. Tea at her place,B. Drinks at a bar,C. Dinner at a restaurant,D. Party at an actor's house,B. Drinks at a bar,yes,29.85,,,,,,,,,,,,,0,18,18,18,0,0,0,0,0,0,0,0,848.6160722500001,,,,,,,,,,,,,,,814.4652630830001,814.514077625,814.5044513330001,844.3662937500001,844.368767916,844.3909424159999,844.602943291,844.602943291,846.7163336250001,847.394873833,7.075,2.3007420419999107,1,[0.6878919170001154],[0.68789429200001],,,,,,,848.601742333,848.6160722500001,848.6160722500001,877.1933491249999,someone is getting drinks and initially wanted to quit the show business. they are talking to someone more experienced,1,[28.588377084000058],[28.58838025],,,,,,,,,,,,,,,,,,,,,,813.792270875,813.7984524999999,813.7984524999999,813.7984524999999,814.465056083,1,[0.6723122079999939],[0.672314957999788],847.395407166,847.400859291,848.6009497499999,1,[1.2050602499998604],[1.2050629579998713],,,,,p_6,001,2024-05-08_12h00.01.482,speech_rate,2023.2.3,None,2024-05-08 12h04.26.910917 -0700,
,Someday_46_condition.wav,Someday__Someday__Maybe__Unabridged___File_024_of_116_2.wav,I almost quit show business tonight I say a little breathless still astonished to have gone from complete despair to something like euphoria in such a short time Again You just quit two weeks ago I did You're a sensitive kid she says laughing That's okay you'll get tougher Let's have non farewell to show business drinks instead I'm meeting Leighton at Joe Allen Want to join Dina and I sit at the glossy wood bar at Joe Allen crowded with actors whose shows have just let out and patrons who've come from the theater,What is Dina inviting the narrator to?,A. Tea at her place,B. Drinks at a bar,C. Dinner at a restaurant,D. Party at an actor's house,B. Drinks at a bar,yes,29.85,,,,,,,,,,,,,0,18,18,18,0,0,0,0,,,,,,,,,,,,,,,,,,,,,,,,,,,,,,,,,,,,,,,,,,,,,,,,,,,,,,,,,,,,,,,,,,,,,,,,,,,,,,,,,,,,,,,,p_6,001,2024-05-08_12h00.01.482,speech_rate,2023.2.3,None,2024-05-08 12h04.26.910917 -0700,
,Someday_46_condition.wav,Someday__Someday__Maybe__Unabridged___File_024_of_116_2.wav,I almost quit show business tonight I say a little breathless still astonished to have gone from complete despair to something like euphoria in such a short time Again You just quit two weeks ago I did You're a sensitive kid she says laughing That's okay you'll get tougher Let's have non farewell to show business drinks instead I'm meeting Leighton at Joe Allen Want to join Dina and I sit at the glossy wood bar at Joe Allen crowded with actors whose shows have just let out and patrons who've come from the theater,What is Dina inviting the narrator to?,A. Tea at her place,B. Drinks at a bar,C. Dinner at a restaurant,D. Party at an actor's house,B. Drinks at a bar,yes,29.85,,,,,,,,,,,,,0,18,18,18,,,,,,,,,,,,,,,,,,,,,,,,,,,,,,,,,,,,,,,,,,,,,,,,,,,,,877.193841625,881.8883778750001,0,,,1,4.685663499999919,4.685666582999829,0,,,0,,,,,,,,,,,,,,,,,,,,,,,,,,,,p_6,001,2024-05-08_12h00.01.482,speech_rate,2023.2.3,None,2024-05-08 12h04.26.910917 -0700,
,Someday_59_condition.wav,Someday__Someday__Maybe__Unabridged___File_028_of_116_1.wav,It's all sort of a a vacuum isn't it Yes it can be I guess Everett isn't saying anything I haven't thought before but there's something so depressing in her description Something less than comforting in her attempt to be understanding in My work ever it says in mergers and amalgamations We're seeing a real boom Lbo's are still the cornerstone of the business obviously but the increase in global capital flows is translating to even more revenue,What does Everett's description sound like to the narrator?,A. Comforting,B. Understanding,C. Concerned,D. Depressing,D. Depressing,yes,29.94,,,,,,,,,,,,,0,19,19,19,0,0,0,0,0,0,0,0,916.9495950410001,,,,,,,,,,,,,,,882.468784208,882.518116083,882.5093152080001,912.443051208,912.464007583,912.485679208,912.745331416,912.745331416,915.387205125,916.3099851659999,4.966666666666667,2.8768076670000937,1,[0.9321702919999098],[0.9321726670000317],,,,,,,916.9383796249999,916.9495950410001,916.9495950410001,929.078104083,some guy is trying to be impressive by using financial terms,1,[12.136480625000104],[12.136483416999909],,,,,,,,,,,,,,,,,,,,,,881.8889751250001,881.901109333,881.901109333,881.901109333,882.468605541,1,[0.5779085420001593],[0.577911333999964],916.3104491660001,916.3190997080001,916.937606125,1,[0.6266450829998576],[0.6266477079998367],,,,,p_6,001,2024-05-08_12h00.01.482,speech_rate,2023.2.3,None,2024-05-08 12h04.26.910917 -0700,
,Someday_59_condition.wav,Someday__Someday__Maybe__Unabridged___File_028_of_116_1.wav,It's all sort of a a vacuum isn't it Yes it can be I guess Everett isn't saying anything I haven't thought before but there's something so depressing in her description Something less than comforting in her attempt to be understanding in My work ever it says in mergers and amalgamations We're seeing a real boom Lbo's are still the cornerstone of the business obviously but the increase in global capital flows is translating to even more revenue,What does Everett's description sound like to the narrator?,A. Comforting,B. Understanding,C. Concerned,D. Depressing,D. Depressing,yes,29.94,,,,,,,,,,,,,0,19,19,19,0,0,0,0,,,,,,,,,,,,,,,,,,,,,,,,,,,,,,,,,,,,,,,,,,,,,,,,,,,,,,,,,,,,,,,,,,,,,,,,,,,,,,,,,,,,,,,,p_6,001,2024-05-08_12h00.01.482,speech_rate,2023.2.3,None,2024-05-08 12h04.26.910917 -0700,
,Someday_59_condition.wav,Someday__Someday__Maybe__Unabridged___File_028_of_116_1.wav,It's all sort of a a vacuum isn't it Yes it can be I guess Everett isn't saying anything I haven't thought before but there's something so depressing in her description Something less than comforting in her attempt to be understanding in My work ever it says in mergers and amalgamations We're seeing a real boom Lbo's are still the cornerstone of the business obviously but the increase in global capital flows is translating to even more revenue,What does Everett's description sound like to the narrator?,A. Comforting,B. Understanding,C. Concerned,D. Depressing,D. Depressing,yes,29.94,,,,,,,,,,,,,0,19,19,19,,,,,,,,,,,,,,,,,,,,,,,,,,,,,,,,,,,,,,,,,,,,,,,,,,,,,929.07853925,940.1980154580001,0,,,1,11.110559415999887,11.110562458000004,0,,,0,,,,,,,,,,,,,,,,,,,,,,,,,,,,p_6,001,2024-05-08_12h00.01.482,speech_rate,2023.2.3,None,2024-05-08 12h04.26.910917 -0700,
,Someday_21_condition-5x.wav,Someday__Someday__Maybe__Unabridged___File_013_of_116_0.wav,But I guess he was like she already has an agent at Absolute and she's got two movies in the can so like you know fine just one more beanpole to deal with This is the kind of confidence you're supposed to have as an actress I think I mean I would personally never announce that I had an agent at Absolute Artists the best agency in town or talk about movies I'd done or refer to myself as a beanpole especially loudly and in a room full of people But then again in my case none of those things are TRUE,What is the narrator's stance on sharing personal accomplishments in public?,A. The narrator believes in confidently announcing her achievements,B. The narrator prefers to keep her agent and acting achievements private,C. The narrator doesn't have a strong opinion on this,D. The narrator feels it's necessary to talk loudly about her successes to gain recognition,D. The narrator feels it's necessary to talk loudly about her successes to gain recognition,no,5.89,,,,,,,,,,,,,0,20,20,20,,,,,,,,,940.2058299160001,,,,,,,,,,,,,,,940.828482833,940.8440618326667,940.8399607910001,946.7387617910001,946.741024958,946.752258583,946.979733291,946.979733291,949.0375106660001,949.6915208330001,2.075,2.257479291999971,1,[0.6659947919999922],[0.6659971669998868],,,,,,,,,,,,,,,949.6919726660001,951.9750059160001,0,,,0,,,1,2.2712946660001307,2.2712972500000888,0,,,,,,,,,,940.19854175,940.2058299160001,940.2058299160001,940.2058299160001,940.8282795,1,[0.6281629580000754],[0.628165541000044],,,,,,,,,,,p_6,001,2024-05-08_12h00.01.482,speech_rate,2023.2.3,None,2024-05-08 12h04.26.910917 -0700,
,Someday_92_condition-5x.wav,Someday__Someday__Maybe__Unabridged___File_040_of_116_1.wav,The chair I'm using is a cushiony office chair with wheels and I become aware about halfway through the monologue that I've been sort of sliding back and forth in it the chair with wheels equivalent of pacing I steady my feet on the floor and command myself to stop moving which causes me to forget my next line Shit I've totally lost my place I pause trying to stay in character I look out the window as though I'm she's having an important thought If I relax it will come to me If I panic it will not That's what I've learned in class,Why does the narrator look out the window during the monologue?,A. To take the agent's attention,B. To stay in character and find the next line,C. To see something interesting,D. To distract herself,B. To stay in character and find the next line,yes,6.07,,,,,,,,,,,,,0,21,21,21,0,0,0,0,0,0,0,0,962.207016458,,,,,,,,,,,,,,,952.573209958,952.5887250826668,952.5858282080001,958.6464160410001,958.6611694580001,958.672378708,958.874239625,958.874239625,960.694866583,961.229286583,1.0083333333333335,1.9979878750000353,1,[0.5439260000000559],[0.5439282500001354],,,,,,,962.195348041,962.207016458,962.207016458,962.7460988749999,,1,[0.5474822080000195],[0.5474852499999088],,,,,,,,,,,,,,,,,,,,,,951.975524041,951.9882474159999,951.9882474159999,951.9882474159999,952.572954833,1,[0.5959080829998129],[0.5959107909998238],961.2297659999999,961.238538333,962.194563083,1,[0.9630389579999701],[0.9630518330000086],,,,,p_6,001,2024-05-08_12h00.01.482,speech_rate,2023.2.3,None,2024-05-08 12h04.26.910917 -0700,
,Someday_92_condition-5x.wav,Someday__Someday__Maybe__Unabridged___File_040_of_116_1.wav,The chair I'm using is a cushiony office chair with wheels and I become aware about halfway through the monologue that I've been sort of sliding back and forth in it the chair with wheels equivalent of pacing I steady my feet on the floor and command myself to stop moving which causes me to forget my next line Shit I've totally lost my place I pause trying to stay in character I look out the window as though I'm she's having an important thought If I relax it will come to me If I panic it will not That's what I've learned in class,Why does the narrator look out the window during the monologue?,A. To take the agent's attention,B. To stay in character and find the next line,C. To see something interesting,D. To distract herself,B. To stay in character and find the next line,yes,6.07,,,,,,,,,,,,,0,21,21,21,0,0,0,0,,,,,,,,,,,,,,,,,,,,,,,,,,,,,,,,,,,,,,,,,,,,,,,,,,,,,,,,,,,,,,,,,,,,,,,,,,,,,,,,,,,,,,,,p_6,001,2024-05-08_12h00.01.482,speech_rate,2023.2.3,None,2024-05-08 12h04.26.910917 -0700,
,Someday_92_condition-5x.wav,Someday__Someday__Maybe__Unabridged___File_040_of_116_1.wav,The chair I'm using is a cushiony office chair with wheels and I become aware about halfway through the monologue that I've been sort of sliding back and forth in it the chair with wheels equivalent of pacing I steady my feet on the floor and command myself to stop moving which causes me to forget my next line Shit I've totally lost my place I pause trying to stay in character I look out the window as though I'm she's having an important thought If I relax it will come to me If I panic it will not That's what I've learned in class,Why does the narrator look out the window during the monologue?,A. To take the agent's attention,B. To stay in character and find the next line,C. To see something interesting,D. To distract herself,B. To stay in character and find the next line,yes,6.07,,,,,,,,,,,,,0,21,21,21,,,,,,,,,,,,,,,,,,,,,,,,,,,,,,,,,,,,,,,,,,,,,,,,,,,,,962.7464722500001,964.3493921659999,0,,,0,,,1,1.5937581670000327,1.5937609580000753,0,,,,,,,,,,,,,,,,,,,,,,,,,,,,p_6,001,2024-05-08_12h00.01.482,speech_rate,2023.2.3,None,2024-05-08 12h04.26.910917 -0700,
,Someday_124_condition.wav,Someday__Someday__Maybe__Unabridged___File_054_of_116_4.wav,If I come home to you eating a pint of Haagen Dazs and watching When Harry Met Sally I'm calling the police What are they going to do arrest me for being a cliché So when the phone rings at 1130 that morning I lunge for it grabbing it on the second ring I'll pretend to Jane I'm in good spirits I'll act peppy as if I've been up for hours Hello this is Richard calling from Absolute Artists Is Franny there,Who calls the main character from Absolute Artists?,A. Barney Sparks,B. Richard,C. Jane,D. Dan,B. Richard,yes,28.72003125,,,,,,,,,,,,,0,22,22,22,0,0,0,0,0,0,0,0,1001.2250112080001,,,,,,,,,,,,,,,965.5404181660001,965.5727091243334,965.575071875,994.289366791,994.298325625,994.3191919160001,994.5267377499999,994.5267377499999,997.9354181660001,1000.638090333,3.8583333333333334,5.50297108299992,1,[2.711971958000049],[2.7119745830000284],,,,,,,1001.2107664580001,1001.2250112080001,1001.2250112080001,1023.79420575,someone was not up all day when a phone rang. they acted like they were awake thinking someone else called but was wrong.,1,[22.580163957999957],[22.580167458000005],,,,,,,,,,,,,,,,,,,,,,964.3498844580001,964.357173958,964.357173958,964.357173958,965.5402120410001,1,[1.1889163749999625],[1.188919124999984],1000.638627458,1000.64292875,1001.210036875,1,[0.570875082999919],[0.5708779169999616],,,,,p_6,001,2024-05-08_12h00.01.482,speech_rate,2023.2.3,None,2024-05-08 12h04.26.910917 -0700,
,Someday_124_condition.wav,Someday__Someday__Maybe__Unabridged___File_054_of_116_4.wav,If I come home to you eating a pint of Haagen Dazs and watching When Harry Met Sally I'm calling the police What are they going to do arrest me for being a cliché So when the phone rings at 1130 that morning I lunge for it grabbing it on the second ring I'll pretend to Jane I'm in good spirits I'll act peppy as if I've been up for hours Hello this is Richard calling from Absolute Artists Is Franny there,Who calls the main character from Absolute Artists?,A. Barney Sparks,B. Richard,C. Jane,D. Dan,B. Richard,yes,28.72003125,,,,,,,,,,,,,0,22,22,22,0,0,0,0,,,,,,,,,,,,,,,,,,,,,,,,,,,,,,,,,,,,,,,,,,,,,,,,,,,,,,,,,,,,,,,,,,,,,,,,,,,,,,,,,,,,,,,,p_6,001,2024-05-08_12h00.01.482,speech_rate,2023.2.3,None,2024-05-08 12h04.26.910917 -0700,
,Someday_124_condition.wav,Someday__Someday__Maybe__Unabridged___File_054_of_116_4.wav,If I come home to you eating a pint of Haagen Dazs and watching When Harry Met Sally I'm calling the police What are they going to do arrest me for being a cliché So when the phone rings at 1130 that morning I lunge for it grabbing it on the second ring I'll pretend to Jane I'm in good spirits I'll act peppy as if I've been up for hours Hello this is Richard calling from Absolute Artists Is Franny there,Who calls the main character from Absolute Artists?,A. Barney Sparks,B. Richard,C. Jane,D. Dan,B. Richard,yes,28.72003125,,,,,,,,,,,,,0,22,22,22,,,,,,,,,,,,,,,,,,,,,,,,,,,,,,,,,,,,,,,,,,,,,,,,,,,,,1023.794658041,1027.861275708,0,,,0,,,1,4.058739332999949,4.058742415999859,0,,,,,,,,,,,,,,,,,,,,,,,,,,,,p_6,001,2024-05-08_12h00.01.482,speech_rate,2023.2.3,None,2024-05-08 12h04.26.910917 -0700,
,Someday_19_condition-3x.wav,Someday__Someday__Maybe__Unabridged___File_012_of_116_0.wav,No I'll push it his sister says giving him a little shove It's my callback The little boy shrinks back from the elevator buttons and I smile sympathetically at their mom but she seems mesmerized by a spot somewhere north of the top of my head so I decide to take a sudden interest in the laces of my shoes and endure the rest of the long creaky ride in silence Even in the best of elevators I think there's no place where time passes so slowly,Where is the narrator?,A. In an audition,B. In a kindergarten,C. In an elevator,D. In a parent's meeting,C. In an elevator,no,10.46625,,,,,,,,,,,,,0,23,23,23,,,,,,,,,1027.868076375,,,,,,,,,,,,,,,1028.416643208,1028.4325768326667,1028.4322071660001,1038.904315458,1038.905819041,1038.9170690830001,1039.162675583,1039.162675583,1042.109583958,1042.590139333,3.075,3.164940000000115,1,[0.4932643750000807],[0.49326670899995406],,,,,,,,,,,,,,,1042.590593375,1045.063085625,0,,,0,,,1,2.4650215829999524,2.465024500000027,0,,,,,,,,,,1027.861847708,1027.868076375,1027.868076375,1027.868076375,1028.416464291,1,[0.5541066250000313],[0.5541092089999893],,,,,,,,,,,p_6,001,2024-05-08_12h00.01.482,speech_rate,2023.2.3,None,2024-05-08 12h04.26.910917 -0700,
,Someday_90_condition-4x.wav,Someday__Someday__Maybe__Unabridged___File_039_of_116_3.wav,There are so many to choose from I wonder if this is part of the audition and the chairs are a test I wonder if I'm being watched on a hidden camera I wonder if I should be worried about the alarming frequency that the concept of being watched on a hidden camera occurs to me But if I were being watched what chair would the people sitting behind the monitor in the hidden control room consider the right one Does Absolute Artists work only with people who choose to sit at the head of the table Does that say I'm a star Is that the kind of boldness they're looking for,Why does the narrator wonder if the chairs are part of the audition?,A. She thinks the chairs are being watched,B. She believes the chairs are a test,C. She wants to find the right chair to sit in,D. All of the above,D. All of the above,no,7.4275,,,,,,,,,,,,,0,24,24,24,,,,,,,,,1045.076890041,,,,,,,,,,,,,,,1045.568084583,1045.5836699996667,1045.582325625,1053.011489375,1053.0139388750001,1053.0251686660001,1053.2310885,1053.2310885,1055.42908125,1055.946378333,2.3666666666666667,2.3791773339999054,1,[0.5263847500000338],[0.5263869580001028],,,,,,,,,,,,,,,1055.946781208,1059.122892708,0,,,1,3.166727207999884,3.1667299579999053,0,,,0,,,,,,,,,,1045.063591541,1045.076890041,1045.076890041,1045.076890041,1045.567867375,1,[0.5027095840000584],[0.502712167000027],,,,,,,,,,,p_6,001,2024-05-08_12h00.01.482,speech_rate,2023.2.3,None,2024-05-08 12h04.26.910917 -0700,
,Someday_7_condition.wav,Someday__Someday__Maybe__Unabridged___File_007_of_116_0.wav,You start out with a three year goal which then becomes a five year goal and before you know it you're still calling yourself an actor but most days you're being assigned a locker outside the cafeteria of the General Electric building so you can change into a borrowed pink polyester lunch lady uniform and serve lukewarm lasagna to a bunch of businessmen who call you excuse me I've made some progress but not enough to tell me for sure that I'm doing the right thing with my life It took most of the first year just to get the coveted waitressing job at the comedy club,What endeavor consumed most of the first year for the narrator?,A. Becoming a successful actress,B. Getting a job at General Electric,C. Getting a waitressing job,D. Becoming a comedian,C. Getting a waitressing job,yes,28.88,,,,,,,,,,,,,0,25,25,25,0,0,0,0,0,0,0,0,1093.51322825,,,,,,,,,,,,,,,1059.612395666,1059.6448525833334,1059.6447780830001,1088.5193435830001,1088.532401708,1088.5542869160001,1088.76510975,1088.76510975,1091.257104791,1092.9090813330001,5.574999999999999,3.7064483330000257,1,[1.661084374999973],[1.6610867089998465],,,,,,,1093.4858066250001,1093.51322825,1093.51322825,1112.865868916,actor is talking about what their real job is being a waitress for businessmen,1,[19.37681325000017],[19.376816125000005],,,,,,,,,,,,,,,,,,,,,,1059.123450291,1059.130383041,1059.130383041,1059.130383041,1059.612178166,1,[0.48701995800001896],[0.4870309580001049],1092.9096804160001,1092.9147593750001,1093.485090833,1,[0.5748949590001757],[0.574897625000176],,,,,p_6,001,2024-05-08_12h00.01.482,speech_rate,2023.2.3,None,2024-05-08 12h04.26.910917 -0700,
,Someday_7_condition.wav,Someday__Someday__Maybe__Unabridged___File_007_of_116_0.wav,You start out with a three year goal which then becomes a five year goal and before you know it you're still calling yourself an actor but most days you're being assigned a locker outside the cafeteria of the General Electric building so you can change into a borrowed pink polyester lunch lady uniform and serve lukewarm lasagna to a bunch of businessmen who call you excuse me I've made some progress but not enough to tell me for sure that I'm doing the right thing with my life It took most of the first year just to get the coveted waitressing job at the comedy club,What endeavor consumed most of the first year for the narrator?,A. Becoming a successful actress,B. Getting a job at General Electric,C. Getting a waitressing job,D. Becoming a comedian,C. Getting a waitressing job,yes,28.88,,,,,,,,,,,,,0,25,25,25,0,0,0,0,,,,,,,,,,,,,,,,,,,,,,,,,,,,,,,,,,,,,,,,,,,,,,,,,,,,,,,,,,,,,,,,,,,,,,,,,,,,,,,,,,,,,,,,p_6,001,2024-05-08_12h00.01.482,speech_rate,2023.2.3,None,2024-05-08 12h04.26.910917 -0700,
,Someday_7_condition.wav,Someday__Someday__Maybe__Unabridged___File_007_of_116_0.wav,You start out with a three year goal which then becomes a five year goal and before you know it you're still calling yourself an actor but most days you're being assigned a locker outside the cafeteria of the General Electric building so you can change into a borrowed pink polyester lunch lady uniform and serve lukewarm lasagna to a bunch of businessmen who call you excuse me I've made some progress but not enough to tell me for sure that I'm doing the right thing with my life It took most of the first year just to get the coveted waitressing job at the comedy club,What endeavor consumed most of the first year for the narrator?,A. Becoming a successful actress,B. Getting a job at General Electric,C. Getting a waitressing job,D. Becoming a comedian,C. Getting a waitressing job,yes,28.88,,,,,,,,,,,,,0,25,25,25,,,,,,,,,,,,,,,,,,,,,,,,,,,,,,,,,,,,,,,,,,,,,,,,,,,,,1112.8663120830001,1119.434280125,0,,,0,,,1,6.557382333000078,6.557385250000152,0,,,,,,,,,,,,,,,,,,,,,,,,,,,,p_6,001,2024-05-08_12h00.01.482,speech_rate,2023.2.3,None,2024-05-08 12h04.26.910917 -0700,
,Someday_37_condition-3x.wav,Someday__Someday__Maybe__Unabridged___File_020_of_116_2.wav,If only I hadn't missed the chair if only I made better undergarment choices I Want to ask someone how bad it was exactly But the backstage area is so small that all the students here now are waiting for their turn and too nervous to talk Anyone who could have been watching from the wings is probably downstairs now in the green room smoking cigarettes and talking about themselves As much as I want feedback I don't feel like going down there I can face one person trying in vain to convince me it wasn't so bad but not a sea of pitying faces,What is preventing the narrator from asking someone about their performance?,A. Fear of a large crowd,B. Lack of interest in feedback,C. The small backstage area,D. Smoking cigarettes in the green room,C. The small backstage area,yes,10.74375,,,,,,,,,,,,,0,26,26,26,0,0,0,0,0,0,0,0,1135.89508825,,,,,,,,,,,,,,,1120.149586166,1120.1649979576666,1120.166143125,1130.916053916,1130.9183095,1130.939634916,1131.189263958,1131.189263958,1134.308963791,1135.055748833,6.083333333333333,3.342829500000107,1,[0.7561378750001495],[0.7561401660000229],,,,,,,1135.883779791,1135.89508825,1135.89508825,1148.568201458,someone gave a performance and it seemed like it was bad. they want feedback.,1,[12.681170957999939],[12.681174290999934],,,,,,,,,,,,,,,,,,,,,,1119.4348205000001,1119.448124708,1119.448124708,1119.448124708,1120.149358833,1,[0.7127312500001608],[0.7127342500000395],1135.0563427910001,1135.064858333,1135.883138916,1,[0.8262708329998532],[0.826273915999991],,,,,p_6,001,2024-05-08_12h00.01.482,speech_rate,2023.2.3,None,2024-05-08 12h04.26.910917 -0700,
,Someday_37_condition-3x.wav,Someday__Someday__Maybe__Unabridged___File_020_of_116_2.wav,If only I hadn't missed the chair if only I made better undergarment choices I Want to ask someone how bad it was exactly But the backstage area is so small that all the students here now are waiting for their turn and too nervous to talk Anyone who could have been watching from the wings is probably downstairs now in the green room smoking cigarettes and talking about themselves As much as I want feedback I don't feel like going down there I can face one person trying in vain to convince me it wasn't so bad but not a sea of pitying faces,What is preventing the narrator from asking someone about their performance?,A. Fear of a large crowd,B. Lack of interest in feedback,C. The small backstage area,D. Smoking cigarettes in the green room,C. The small backstage area,yes,10.74375,,,,,,,,,,,,,0,26,26,26,0,0,0,0,,,,,,,,,,,,,,,,,,,,,,,,,,,,,,,,,,,,,,,,,,,,,,,,,,,,,,,,,,,,,,,,,,,,,,,,,,,,,,,,,,,,,,,,p_6,001,2024-05-08_12h00.01.482,speech_rate,2023.2.3,None,2024-05-08 12h04.26.910917 -0700,
,Someday_37_condition-3x.wav,Someday__Someday__Maybe__Unabridged___File_020_of_116_2.wav,If only I hadn't missed the chair if only I made better undergarment choices I Want to ask someone how bad it was exactly But the backstage area is so small that all the students here now are waiting for their turn and too nervous to talk Anyone who could have been watching from the wings is probably downstairs now in the green room smoking cigarettes and talking about themselves As much as I want feedback I don't feel like going down there I can face one person trying in vain to convince me it wasn't so bad but not a sea of pitying faces,What is preventing the narrator from asking someone about their performance?,A. Fear of a large crowd,B. Lack of interest in feedback,C. The small backstage area,D. Smoking cigarettes in the green room,C. The small backstage area,yes,10.74375,,,,,,,,,,,,,0,26,26,26,,,,,,,,,,,,,,,,,,,,,,,,,,,,,,,,,,,,,,,,,,,,,,,,,,,,,1148.568664291,1159.037056041,0,,,1,10.457532207999975,10.45753516700006,0,,,0,,,,,,,,,,,,,,,,,,,,,,,,,,,,p_6,001,2024-05-08_12h00.01.482,speech_rate,2023.2.3,None,2024-05-08 12h04.26.910917 -0700,
,Someday_34_condition-4x.wav,Someday__Someday__Maybe__Unabridged___File_019_of_116_2.wav,Who falls on stage wearing nothing but a bathrobe Why Why Why Why The monologue was going so well too or at least I think it was I'm not sure of anything now The audience seemed to be laughing in all the right places That's actually what threw me I think Their laughter threw my whole rhythm off having to wait until it died down before I could continue But still it was all okay until I tried to sit down The stage was just so dark and the lights were in my eyes,What disrupted the narrator's monologue performance?,A. The audience's laughter,B. The noise from the backstage,C. The unexpected props,D. The malfunctioning lights,A. The audience's laughter,yes,7.5425,,,,,,,,,,,,,0,27,27,27,0,0,0,0,0,0,0,0,1171.951274708,,,,,,,,,,,,,,,1160.018401583,1160.0340111666667,1160.031838208,1167.584817166,1167.5874820000001,1167.5986963330001,1167.825244833,1167.825244833,1170.341003541,1171.43146875,4.091666666666667,3.2594827500001884,1,[1.0996332090001033],[1.0996357500000613],,,,,,,1171.937283125,1171.951274708,1171.951274708,1175.468954,the stage is dark,1,[3.5285475839998526],[3.528550709000001],,,,,,,,,,,,,,,,,,,,,,1159.037794958,1159.050466166,1159.050466166,1159.050466166,1160.0182044160001,1,[0.9786596660001123],[0.9786623330001021],1171.431989208,1171.436513208,1171.936562833,1,[0.5040381249998518],[0.5040408329998627],,,,,p_6,001,2024-05-08_12h00.01.482,speech_rate,2023.2.3,None,2024-05-08 12h04.26.910917 -0700,
,Someday_34_condition-4x.wav,Someday__Someday__Maybe__Unabridged___File_019_of_116_2.wav,Who falls on stage wearing nothing but a bathrobe Why Why Why Why The monologue was going so well too or at least I think it was I'm not sure of anything now The audience seemed to be laughing in all the right places That's actually what threw me I think Their laughter threw my whole rhythm off having to wait until it died down before I could continue But still it was all okay until I tried to sit down The stage was just so dark and the lights were in my eyes,What disrupted the narrator's monologue performance?,A. The audience's laughter,B. The noise from the backstage,C. The unexpected props,D. The malfunctioning lights,A. The audience's laughter,yes,7.5425,,,,,,,,,,,,,0,27,27,27,0,0,0,0,,,,,,,,,,,,,,,,,,,,,,,,,,,,,,,,,,,,,,,,,,,,,,,,,,,,,,,,,,,,,,,,,,,,,,,,,,,,,,,,,,,,,,,,p_6,001,2024-05-08_12h00.01.482,speech_rate,2023.2.3,None,2024-05-08 12h04.26.910917 -0700,
,Someday_34_condition-4x.wav,Someday__Someday__Maybe__Unabridged___File_019_of_116_2.wav,Who falls on stage wearing nothing but a bathrobe Why Why Why Why The monologue was going so well too or at least I think it was I'm not sure of anything now The audience seemed to be laughing in all the right places That's actually what threw me I think Their laughter threw my whole rhythm off having to wait until it died down before I could continue But still it was all okay until I tried to sit down The stage was just so dark and the lights were in my eyes,What disrupted the narrator's monologue performance?,A. The audience's laughter,B. The noise from the backstage,C. The unexpected props,D. The malfunctioning lights,A. The audience's laughter,yes,7.5425,,,,,,,,,,,,,0,27,27,27,,,,,,,,,,,,,,,,,,,,,,,,,,,,,,,,,,,,,,,,,,,,,,,,,,,,,1175.469462208,1180.795266458,0,,,0,,,0,,,1,5.316307541999777,5.316310874999999,,,,,,,,,,,,,,,,,,,,,,,,,,p_6,001,2024-05-08_12h00.01.482,speech_rate,2023.2.3,None,2024-05-08 12h04.26.910917 -0700,
,Someday_67_condition.wav,Someday__Someday__Maybe__Unabridged___File_033_of_116_1.wav,Well I'm doing all right I guess I imagine myself saying but I'm about three inches from where I really want to be I think of how much effort has taken me to even be a 29 I can't imagine what else I could do to be a 26 but it makes sense too that the Cordelia Biscaynes of the world are literally measurably different from the rest of us Three inches might as well be 300 to me today Hi I'm Carol,What size does the narrator wear?,A. 29,B. 26,C. 30,D. 28,A. 29,no,29.22,,,,,,,,,,,,,0,28,28,28,,,,,,,,,1180.818111041,,,,,,,,,,,,,,,1181.902555041,1181.9351825833332,1181.932430458,1211.15346875,1211.157787375,1211.179085625,1211.3910532080001,1211.3910532080001,1214.8859944160001,1215.8164597080001,4.425,3.665658375000021,1,[0.9561188340001081],[0.9561211669999921],,,,,,,,,,,,,,,1215.816874625,1221.238687708,0,,,0,,,0,,,1,5.414320374999988,5.414323332999857,,,,,,,,1180.795806666,1180.818111041,1180.818111041,1180.818111041,1181.902369458,1,[1.1060340839999299],[1.1060366669998984],,,,,,,,,,,p_6,001,2024-05-08_12h00.01.482,speech_rate,2023.2.3,None,2024-05-08 12h04.26.910917 -0700,
,Someday_74_condition-4x.wav,Someday__Someday__Maybe__Unabridged___File_035_of_116_2.wav,Barney wears a light blue sport coat and has thick white hair cropped very close to his head The whole place smells like cigar smoke and dust but there's something comforting about it I'm afraid my nervousness is obvious especially when I discover that the only way to sit in the one huge armchair opposite his desk is to sink into it and be swallowed I fight the chair for a minute trying to perch daintily on the edge and then give up and sit back which at least might make me look relaxed Francis Banks Barney Bellows,What is Barney Sparks wearing when the main character meets him?,A. A black tuxedo,B. A light blue sport coat,C. A red sweater,D. A white lab coat,B. A light blue sport coat,yes,7.435,,,,,,,,,,,,,0,29,29,29,0,0,0,0,0,0,0,0,1232.668391291,,,,,,,,,,,,,,,1222.161345083,1222.1772715826667,1222.173816458,1229.62150875,1229.623702625,1229.634918666,1229.841472625,1229.841472625,1231.693408291,1232.111897166,2.25,2.0337765829999626,1,[0.42817791599986776],[0.42818016599994735],,,,,,,1232.656636833,1232.668391291,1232.668391291,1233.354994416,,1,[0.6952413749997959],[0.6952440419997856],,,,,,,,,,,,,,,,,,,,,,1221.239212833,1221.24622225,1221.24622225,1221.24622225,1222.1611665,1,[0.9203427499999179],[0.9203454999999394],1232.112365291,1232.120628208,1232.6558561250001,1,[0.5429259170000478],[0.5429289170001539],,,,,p_6,001,2024-05-08_12h00.01.482,speech_rate,2023.2.3,None,2024-05-08 12h04.26.910917 -0700,
,Someday_74_condition-4x.wav,Someday__Someday__Maybe__Unabridged___File_035_of_116_2.wav,Barney wears a light blue sport coat and has thick white hair cropped very close to his head The whole place smells like cigar smoke and dust but there's something comforting about it I'm afraid my nervousness is obvious especially when I discover that the only way to sit in the one huge armchair opposite his desk is to sink into it and be swallowed I fight the chair for a minute trying to perch daintily on the edge and then give up and sit back which at least might make me look relaxed Francis Banks Barney Bellows,What is Barney Sparks wearing when the main character meets him?,A. A black tuxedo,B. A light blue sport coat,C. A red sweater,D. A white lab coat,B. A light blue sport coat,yes,7.435,,,,,,,,,,,,,0,29,29,29,0,0,0,0,,,,,,,,,,,,,,,,,,,,,,,,,,,,,,,,,,,,,,,,,,,,,,,,,,,,,,,,,,,,,,,,,,,,,,,,,,,,,,,,,,,,,,,,p_6,001,2024-05-08_12h00.01.482,speech_rate,2023.2.3,None,2024-05-08 12h04.26.910917 -0700,
,Someday_74_condition-4x.wav,Someday__Someday__Maybe__Unabridged___File_035_of_116_2.wav,Barney wears a light blue sport coat and has thick white hair cropped very close to his head The whole place smells like cigar smoke and dust but there's something comforting about it I'm afraid my nervousness is obvious especially when I discover that the only way to sit in the one huge armchair opposite his desk is to sink into it and be swallowed I fight the chair for a minute trying to perch daintily on the edge and then give up and sit back which at least might make me look relaxed Francis Banks Barney Bellows,What is Barney Sparks wearing when the main character meets him?,A. A black tuxedo,B. A light blue sport coat,C. A red sweater,D. A white lab coat,B. A light blue sport coat,yes,7.435,,,,,,,,,,,,,0,29,29,29,,,,,,,,,,,,,,,,,,,,,,,,,,,,,,,,,,,,,,,,,,,,,,,,,,,,,1233.355388958,1234.6988026660001,0,,,1,1.335161540999934,1.3351642499999343,0,,,0,,,,,,,,,,,,,,,,,,,,,,,,,,,,p_6,001,2024-05-08_12h00.01.482,speech_rate,2023.2.3,None,2024-05-08 12h04.26.910917 -0700,
,Someday_89_condition-3x.wav,Someday__Someday__Maybe__Unabridged___File_039_of_116_2.wav,Excuse me can you tell me what day of the week it is they'll say and laugh I'm leaning awkwardly against the wall near the door not sure what to do while I wait Maybe I should sit Plenty of people use sitting as a way to pass the time I look at the giant table and multitude of chairs Unless a bunch of people are going to join us this seems a strange room to choose for a meeting of two Yes I think I'll sit But I'm not sure which spot to choose I'm not totally sure I even want to sit yet,Why does the narrator feel uncertain about sitting in the room?,A. She is worried about her outfit,B. She doesn't know which chair to choose,C. She prefers to stand,D. She has somewhere else to be,B. She doesn't know which chair to choose,no,10.7775,,,,,,,,,,,,,0,30,30,30,,,,,,,,,1234.706310708,,,,,,,,,,,,,,,1235.572817875,1235.5882382076668,1235.58908525,1246.372693666,1246.375293125,1246.386514541,1246.589112416,1246.589112416,1249.799504625,1250.601178333,5.15,3.3858644580000146,1,[0.8115671660000316],[0.8115694579998944],,,,,,,,,,,,,,,1250.60163975,1254.416784916,0,,,1,3.806288416999905,3.8062919579999743,0,,,0,,,,,,,,,,1234.699320291,1234.706310708,1234.706310708,1234.706310708,1235.572593,1,[0.8715357500000209],[0.8715385409998362],,,,,,,,,,,p_6,001,2024-05-08_12h00.01.482,speech_rate,2023.2.3,None,2024-05-08 12h04.26.910917 -0700,
,Someday_57_condition-3x.wav,Someday__Someday__Maybe__Unabridged___File_027_of_116_5.wav,I imagine being in the cast of that show and having to listen to people talk about the chandelier as their favorite part I don't know how to respond Then I remember that Everett said she had a meeting the next day I uh just found out tonight actually that I'm going to have some meetings with agents I say trying to bridge the gap Oh meetings she says like some people might say Oh ice cream or oh free diamonds Yep I'm going to have two of them actually,What does the narrator fantasize about while talking to Everett?,A. Being a famous actress,B. Being in the cast of a show,C. Traveling the world,D. Writing a novel,B. Being in the cast of a show,no,10.85625,,,,,,,,,,,,,0,31,31,31,,,,,,,,,1254.424691083,,,,,,,,,,,,,,,1255.313506833,1255.3294644166667,1255.3303551660001,1266.177912625,1266.192497791,1266.203706625,1266.409658541,1266.409658541,1269.04565175,1269.584927291,4.516666666666667,2.817186250000077,1,[0.5485444999999345],[0.5485467500000141],,,,,,,,,,,,,,,1269.585320833,1278.808105541,0,,,1,9.214740207999967,9.214742915999977,0,,,0,,,,,,,,,,1254.417372625,1254.424691083,1254.424691083,1254.424691083,1255.3133251250001,1,[0.8942158339998514],[0.894218292000005],,,,,,,,,,,p_6,001,2024-05-08_12h00.01.482,speech_rate,2023.2.3,None,2024-05-08 12h04.26.910917 -0700,
,Someday_58_condition-2x.wav,Someday__Someday__Maybe__Unabridged___File_028_of_116_0.wav,Her profile is sharp her whole body a series of angles that have somehow Improbably folded themselves on their hinges into the soft chair There's something so regal and linear about her I can't imagine her ever collapsing into giggles or crying hysterically She's taking her time to consider what to say next in a way that suggests she's used to people waiting for her I wonder what that's like to never worry about filling the silence Her eyes eventually float back to me,How does the narrator describe the woman's profile?,A. Sharp,B. Round,C. Regal,D. Hysterical,A. Sharp,yes,14.64,,,,,,,,,,,,,0,32,32,32,0,0,0,0,0,0,0,0,1298.090214125,,,,,,,,,,,,,,,1279.381352958,1279.3967952916666,1279.400539958,1294.031635083,1294.044010375,1294.05524625,1294.259476625,1294.259476625,1296.607359916,1297.39466,7.425,2.5242995419998806,1,[0.8002422920001209],[0.8002445829999942],,,,,,,1298.078685291,1298.090214125,1298.090214125,1314.418015625,someone is very regal and responds slowly,1,[16.336117207999905],[16.336120707999953],,,,,,,,,,,,,,,,,,,,,,1278.808615041,1278.815638291,1278.815638291,1278.815638291,1279.381164875,1,[0.5709945419998803],[0.5709972919999018],1297.395142875,1297.407878666,1298.077993791,1,[0.6821826249999958],[0.6821851659999538],,,,,p_6,001,2024-05-08_12h00.01.482,speech_rate,2023.2.3,None,2024-05-08 12h04.26.910917 -0700,
,Someday_58_condition-2x.wav,Someday__Someday__Maybe__Unabridged___File_028_of_116_0.wav,Her profile is sharp her whole body a series of angles that have somehow Improbably folded themselves on their hinges into the soft chair There's something so regal and linear about her I can't imagine her ever collapsing into giggles or crying hysterically She's taking her time to consider what to say next in a way that suggests she's used to people waiting for her I wonder what that's like to never worry about filling the silence Her eyes eventually float back to me,How does the narrator describe the woman's profile?,A. Sharp,B. Round,C. Regal,D. Hysterical,A. Sharp,yes,14.64,,,,,,,,,,,,,0,32,32,32,0,0,0,0,,,,,,,,,,,,,,,,,,,,,,,,,,,,,,,,,,,,,,,,,,,,,,,,,,,,,,,,,,,,,,,,,,,,,,,,,,,,,,,,,,,,,,,,p_6,001,2024-05-08_12h00.01.482,speech_rate,2023.2.3,None,2024-05-08 12h04.26.910917 -0700,
,Someday_58_condition-2x.wav,Someday__Someday__Maybe__Unabridged___File_028_of_116_0.wav,Her profile is sharp her whole body a series of angles that have somehow Improbably folded themselves on their hinges into the soft chair There's something so regal and linear about her I can't imagine her ever collapsing into giggles or crying hysterically She's taking her time to consider what to say next in a way that suggests she's used to people waiting for her I wonder what that's like to never worry about filling the silence Her eyes eventually float back to me,How does the narrator describe the woman's profile?,A. Sharp,B. Round,C. Regal,D. Hysterical,A. Sharp,yes,14.64,,,,,,,,,,,,,0,32,32,32,,,,,,,,,,,,,,,,,,,,,,,,,,,,,,,,,,,,,,,,,,,,,,,,,,,,,1314.418540166,1317.803951208,0,,,0,,,1,3.377358250000043,3.3773611249998794,0,,,,,,,,,,,,,,,,,,,,,,,,,,,,p_6,001,2024-05-08_12h00.01.482,speech_rate,2023.2.3,None,2024-05-08 12h04.26.910917 -0700,
