index,wav_file,old_name,segment_text,question,C1,C2,C3,C4,C_correct,summary,duration,training.thisRepN,training.thisTrialN,training.thisN,training.thisIndex,sum_true.thisRepN,sum_true.thisTrialN,sum_true.thisN,sum_true.thisIndex,dummy_loop.thisRepN,dummy_loop.thisTrialN,dummy_loop.thisN,dummy_loop.thisIndex,experiment.thisRepN,experiment.thisTrialN,experiment.thisN,experiment.thisIndex,sum_true_exp.thisRepN,sum_true_exp.thisTrialN,sum_true_exp.thisN,sum_true_exp.thisIndex,dummy_loop_exp.thisRepN,dummy_loop_exp.thisTrialN,dummy_loop_exp.thisN,dummy_loop_exp.thisIndex,thisRow.t,notes,Experimenter.started,reminder.started,Experimenter.stopped,Instructions.started,Instructions.stopped,Start_Segment_Train.started,Play_train.started,Trial_counter_train.started,text_5.started,Start_Segment_Train.stopped,Play_train.numClicks,Play_train.timesOn,Play_train.timesOff,Training_Segment.started,Experimen_audio.started,polygon.started,polygon.stopped,Training_Segment.stopped,Rating.started,slider.started,text_3.started,button_2.started,Rating.stopped,slider.response,slider.rt,button_2.numClicks,button_2.timesOn,button_2.timesOff,Start_Summary.started,text_2.started,Start_Summary.stopped,summary_button.numClicks,summary_button.timesOn,summary_button.timesOff,Summary.started,textbox.started,summary_done.started,Summary.stopped,textbox.text,summary_done.numClicks,summary_done.timesOn,summary_done.timesOff,Multiple_Choice_2.started,Multiple_Choice_2.stopped,A.numClicks,A.timesOn,A.timesOff,B.numClicks,B.timesOn,B.timesOff,C.numClicks,C.timesOn,C.timesOff,D.numClicks,D.timesOn,D.timesOff,Start_Exp.started,Start_exp.started,Start.started,Start_Exp.stopped,Start.numClicks,Start.timesOn,Start.timesOff,Start_Segment.started,Play.started,Trial_counter.started,text_6.started,Start_Segment.stopped,Play.numClicks,Play.timesOn,Play.timesOff,Start_Sum_Exp.started,text_4.started,Start_Sum_Exp.stopped,sum_button.numClicks,sum_button.timesOn,sum_button.timesOff,textbox.stopped,summary_done.stopped,Thanks.started,text_7.started,text_7.stopped,Thanks.stopped,participant,session,date,expName,psychopyVersion,frameRate,expStart,
1,Someday_trial_condition.wav,Someday__Someday__Maybe__Unabridged___File_069_of_116_3.wav,It's a gut feeling You can't nickname him He's a real person not a joke person You don't have to tell me Only a real person would try to shake hands with my best friend's foot Jane you're not explaining it right It was very romantic And thankfully our steaming bowl of bright yellow melted cheese with flecks of green chilies arrives Listen she says dipping a chip into the creamy depths You're the one with the brand new personality I'm still the same old Jane,"What does the narrator have, according to Jane?",A) A new recipe for dipping sauce,B) A new personality,C) A new restaurant suggestion,D) A new pair of shoes,B) A new personality,yes,30,0,0,0,0,0,0,0,0,0,0,0,0,,,,,,,,,,,,,319.2154322499998,,0.009056040999894321,0.018208624999942913,258.079718833,258.0797325409999,277.70312083299996,277.7130527909999,277.729727875,277.729727875,277.729727875,279.2564709159999,1,[1.5342201250000471],[1.534226125000032],279.2569470829999,279.3034632499999,279.30101987499984,309.3182192909999,309.2887947909999,309.310461625,309.51841516599984,309.51841516599984,312.10378708300004,312.8988609579999,9.95,2.764946124999824,1,[0.8083519589999923],[0.8083544589999292],312.90117495799996,312.9067514579999,319.17606524999997,1,[6.274035334000018],[6.274040624999998],319.17684833299995,319.2154322499998,319.2154322499998,348.43174324999995,Jane is talking with someone (presumably over a meal at a restaurant) about a romantic enouncter she had (foot shaking),1,[29.226801499999965],[29.22680483299996],,,,,,,,,,,,,,,,,,,,,,,,,,,,,,,,,,,,,,,,,,p_9,001,2024-05-09_17h18.45.829,speech_rate,2023.2.3,None,2024-05-09 17h18.59.414442 -0700,
1,Someday_trial_condition.wav,Someday__Someday__Maybe__Unabridged___File_069_of_116_3.wav,It's a gut feeling You can't nickname him He's a real person not a joke person You don't have to tell me Only a real person would try to shake hands with my best friend's foot Jane you're not explaining it right It was very romantic And thankfully our steaming bowl of bright yellow melted cheese with flecks of green chilies arrives Listen she says dipping a chip into the creamy depths You're the one with the brand new personality I'm still the same old Jane,"What does the narrator have, according to Jane?",A) A new recipe for dipping sauce,B) A new personality,C) A new restaurant suggestion,D) A new pair of shoes,B) A new personality,yes,30,0,0,0,0,0,0,0,0,,,,,,,,,,,,,,,,,,,,,,,,,,,,,,,,,,,,,,,,,,,,,,,,,,,,,,,,,,,,,,,,,,,,,,,,,,,,,,,,,,,,,,,,,,,,,,,,,,,,,,p_9,001,2024-05-09_17h18.45.829,speech_rate,2023.2.3,None,2024-05-09 17h18.59.414442 -0700,
1,Someday_trial_condition.wav,Someday__Someday__Maybe__Unabridged___File_069_of_116_3.wav,It's a gut feeling You can't nickname him He's a real person not a joke person You don't have to tell me Only a real person would try to shake hands with my best friend's foot Jane you're not explaining it right It was very romantic And thankfully our steaming bowl of bright yellow melted cheese with flecks of green chilies arrives Listen she says dipping a chip into the creamy depths You're the one with the brand new personality I'm still the same old Jane,"What does the narrator have, according to Jane?",A) A new recipe for dipping sauce,B) A new personality,C) A new restaurant suggestion,D) A new pair of shoes,B) A new personality,yes,30,0,0,0,0,,,,,,,,,,,,,,,,,,,,,,,,,,,,,,,,,,,,,,,,,,,,,,,,,,,,,,,,,,,,,,,,,348.4322828749998,354.52280399999995,0,,,1,6.06920454100009,6.069207000000006,0,,,0,,,,,,,,,,,,,,,,,,,,,,,,,,,,,,p_9,001,2024-05-09_17h18.45.829,speech_rate,2023.2.3,None,2024-05-09 17h18.59.414442 -0700,
2,Someday_trial_condition-5x.wav,Someday__Someday__Maybe__Unabridged___File_103_of_116_1.wav,Isn't halfway where two people usually meet Well in general maybe But tonight this is sort of a big deal for me It's my night I'm not sure you you don't think I get it Well no I mean how could you I'm having trouble making sense of this conversation James is speaking with authority but there's something wrong Something feels so wrong somehow I don't care about waving and smiling and having my picture taken with him,"How does James speak, according to the narrator?",A) With compassion,B) With grief,C) With hesitation,D) With authority,D) With authority,yes,6.2,0,1,1,1,0,0,0,0,0,0,0,0,,,,,,,,,,,,,367.4103016249999,,,,,,,354.5234725,354.531223125,354.531223125,354.531223125,358.0605264579999,1,[3.5338651250001476],[3.5338762500000485],358.06079154099984,358.0738645826666,358.0726782909999,364.277147541,364.25827849999996,364.26941558299995,364.527694958,364.527694958,365.9010249999999,366.5922659999999,1.0750000000000002,1.60380070899987,1,[0.7004900419999558],[0.7004924999998821],366.592790958,366.5973531249999,367.39838158299995,1,[0.8052060420000089],[0.8052087500000198],367.398958041,367.4103016249999,367.4103016249999,368.0746535829999,,1,[0.6717857080000158],[0.6717890830000215],,,,,,,,,,,,,,,,,,,,,,,,,,,,,,,,,,,,,,,,,,p_9,001,2024-05-09_17h18.45.829,speech_rate,2023.2.3,None,2024-05-09 17h18.59.414442 -0700,
2,Someday_trial_condition-5x.wav,Someday__Someday__Maybe__Unabridged___File_103_of_116_1.wav,Isn't halfway where two people usually meet Well in general maybe But tonight this is sort of a big deal for me It's my night I'm not sure you you don't think I get it Well no I mean how could you I'm having trouble making sense of this conversation James is speaking with authority but there's something wrong Something feels so wrong somehow I don't care about waving and smiling and having my picture taken with him,"How does James speak, according to the narrator?",A) With compassion,B) With grief,C) With hesitation,D) With authority,D) With authority,yes,6.2,0,1,1,1,0,0,0,0,,,,,,,,,,,,,,,,,,,,,,,,,,,,,,,,,,,,,,,,,,,,,,,,,,,,,,,,,,,,,,,,,,,,,,,,,,,,,,,,,,,,,,,,,,,,,,,,,,,,,,p_9,001,2024-05-09_17h18.45.829,speech_rate,2023.2.3,None,2024-05-09 17h18.59.414442 -0700,
2,Someday_trial_condition-5x.wav,Someday__Someday__Maybe__Unabridged___File_103_of_116_1.wav,Isn't halfway where two people usually meet Well in general maybe But tonight this is sort of a big deal for me It's my night I'm not sure you you don't think I get it Well no I mean how could you I'm having trouble making sense of this conversation James is speaking with authority but there's something wrong Something feels so wrong somehow I don't care about waving and smiling and having my picture taken with him,"How does James speak, according to the narrator?",A) With compassion,B) With grief,C) With hesitation,D) With authority,D) With authority,yes,6.2,0,1,1,1,,,,,,,,,,,,,,,,,,,,,,,,,,,,,,,,,,,,,,,,,,,,,,,,,,,,,,,,,,,,,,,,,368.0750532909999,371.65209608299983,0,,,0,,,1,3.5669094159998167,3.566912540999965,0,,,,,,,,,,,,,,,,,,,,,,,,,,,,,,p_9,001,2024-05-09_17h18.45.829,speech_rate,2023.2.3,None,2024-05-09 17h18.59.414442 -0700,
,Someday_120_condition-4x.wav,Someday__Someday__Maybe__Unabridged___File_053_of_116_2.wav,Everything you need is in each packet so it takes the guesswork out of dieting You sound like you've joined a cult What happens when you have to go back to the real world the world where you have to think for yourself Hopefully I'll be so weak and frail that food will have lost its appeal entirely Great plan And who's on Lisa today I'm pretty sure today's show is Women Who Wish Their Best Friends Would Stop Judging Them Har har I'm going to work now Do you want me to take the TV cord with me,"What topic is discussed on Lisa's show, in the narrator's joke?",A. Weight loss programs,B. The challenges of dieting,C. Women's relationships with their best friends,D. The appeal of joining a cult,C. Women's relationships with their best friends,yes,6.9425,,,,,,,,,,,,,0,0,0,0,0,0,0,0,0,0,0,0,416.6592358329999,,,,,,,,,,,,,,,401.7030689999999,401.7183835416665,401.716184375,408.65019395800005,408.66198462499983,408.673206125,408.8804869999999,408.8804869999999,411.60930095799995,412.96588904099985,1.85,2.9075060420000227,1,[1.3692000000000917],[1.3692028329999175],,,,,,,416.64805024999987,416.6592358329999,416.6592358329999,423.76035783299994,real world har har,1,[7.109249833999911],[7.109253249999938],,,,,,,,,,,,,,,371.65258737499994,371.65941262499996,371.65941262499996,398.6977247909999,1,[27.043642124999906],[27.04365395800005],398.74442124999996,398.7553573749999,398.7553573749999,398.7553573749999,401.70260204099986,1,[2.954733957999906],[2.9547369580000122],412.96659720799994,412.97590708300004,416.64729987500004,1,[3.6799257080001553],[3.6799302500000977],,,,,,,p_9,001,2024-05-09_17h18.45.829,speech_rate,2023.2.3,None,2024-05-09 17h18.59.414442 -0700,
,Someday_120_condition-4x.wav,Someday__Someday__Maybe__Unabridged___File_053_of_116_2.wav,Everything you need is in each packet so it takes the guesswork out of dieting You sound like you've joined a cult What happens when you have to go back to the real world the world where you have to think for yourself Hopefully I'll be so weak and frail that food will have lost its appeal entirely Great plan And who's on Lisa today I'm pretty sure today's show is Women Who Wish Their Best Friends Would Stop Judging Them Har har I'm going to work now Do you want me to take the TV cord with me,"What topic is discussed on Lisa's show, in the narrator's joke?",A. Weight loss programs,B. The challenges of dieting,C. Women's relationships with their best friends,D. The appeal of joining a cult,C. Women's relationships with their best friends,yes,6.9425,,,,,,,,,,,,,0,0,0,0,0,0,0,0,,,,,,,,,,,,,,,,,,,,,,,,,,,,,,,,,,,,,,,,,,,,,,,,,,,,,,,,,,,,,,,,,,,,,,,,,,,,,,,,,,,,,,,,,,p_9,001,2024-05-09_17h18.45.829,speech_rate,2023.2.3,None,2024-05-09 17h18.59.414442 -0700,
,Someday_120_condition-4x.wav,Someday__Someday__Maybe__Unabridged___File_053_of_116_2.wav,Everything you need is in each packet so it takes the guesswork out of dieting You sound like you've joined a cult What happens when you have to go back to the real world the world where you have to think for yourself Hopefully I'll be so weak and frail that food will have lost its appeal entirely Great plan And who's on Lisa today I'm pretty sure today's show is Women Who Wish Their Best Friends Would Stop Judging Them Har har I'm going to work now Do you want me to take the TV cord with me,"What topic is discussed on Lisa's show, in the narrator's joke?",A. Weight loss programs,B. The challenges of dieting,C. Women's relationships with their best friends,D. The appeal of joining a cult,C. Women's relationships with their best friends,yes,6.9425,,,,,,,,,,,,,0,0,0,0,,,,,,,,,,,,,,,,,,,,,,,,,,,,,,,,,,,,,,,,,,,,,,,,,,,,,423.760761625,431.41066408300003,0,,,0,,,1,7.637030291999963,7.6370327919999,0,,,,,,,,,,,,,,,,,,,,,,,,,,,,,,p_9,001,2024-05-09_17h18.45.829,speech_rate,2023.2.3,None,2024-05-09 17h18.59.414442 -0700,
,Someday_115_condition-3x.wav,Someday__Someday__Maybe__Unabridged___File_051_of_116_2.wav,All those people can't just be walking around starving and happening to look great all the time They must know something that the rest of us don't Or worse maybe there isn't a trick Maybe they are walking around hungry all the time Maybe that's the difference between being successful or unsuccessful Maybe I'm too weak I'm too concerned with feeling good to be willing to feel as bad as I should to be successful Why would feeling good be bad People spend their lives trying to feel good You're not supposed to walk around miserable all the time,What is the narrator's concern about the successful people she sees?,A. They are always happy,B. They are always starving themselves,C. They know a secret for good acting,D. They are too weak to succeed,B. They are always starving themselves,no,11.0775,,,,,,,,,,,,,0,1,1,1,,,,,,,,,431.4175574579999,,,,,,,,,,,,,,,432.79577912499985,432.8114318326666,432.813199875,443.88537233299985,443.89041908299987,443.9121236249998,444.12230429099986,444.12230429099986,445.911210125,446.52384499999994,8.95,1.971362499999941,1,[0.6251294159999361],[0.6251316660000157],,,,,,,,,,,,,,,446.5242821659999,465.2312347079999,0,,,1,18.697430499999882,18.697433833999867,0,,,0,,,,,,,,,,431.41161887499993,431.4175574579999,431.4175574579999,431.4175574579999,432.7955501659999,1,[1.3826545000001715],[1.382657375000008],,,,,,,,,,,,,p_9,001,2024-05-09_17h18.45.829,speech_rate,2023.2.3,None,2024-05-09 17h18.59.414442 -0700,
,Someday_76_condition-2x.wav,Someday__Someday__Maybe__Unabridged___File_035_of_116_4.wav,You're kidding No dear I'm a sucker for a klutz It's where you see what someone is made of My father the great Broadway director Irving Sparks always said anyone can smile on their best day I like to meet a man who can smile on his worst I was his assistant as a younger man just 19 years old sitting in the very last row in the audience of Best Foot Forward when a redheaded chorus girl took a terrible spill,Why was Barney Sparks' father's occupation?,A. He was a doctor,B. He was an actor,C. He was a Broadway director,D. He was an accountant,C. He was a Broadway director,yes,13.105,,,,,,,,,,,,,0,2,2,2,0,0,0,0,0,0,0,0,486.65093154099986,,,,,,,,,,,,,,,467.800808166,467.8307127913333,467.82168858299997,480.9181645829999,480.93754779100004,480.948721666,481.1512722079999,481.1512722079999,483.91344583299997,484.565739958,9.075,2.935972582999966,1,[0.6649867500000255],[0.6649892499999623],,,,,,,486.64063050000004,486.65093154099986,486.65093154099986,515.4413489159999,"the narrator talks about advice from their father, for 
whom they were an assistant, and how they saw a 
girl fall at one of the shows when they were little",1,[28.797397249999904],[28.797400874999994],,,,,,,,,,,,,,,,,,,,,,465.23189079099984,465.239480791,465.239480791,465.239480791,467.800543416,1,[2.5667617920000794],[2.566767208000101],484.566306875,484.580132458,486.6399927499999,1,[2.073213459000044],[2.0732160840000233],,,,,,,p_9,001,2024-05-09_17h18.45.829,speech_rate,2023.2.3,None,2024-05-09 17h18.59.414442 -0700,
,Someday_76_condition-2x.wav,Someday__Someday__Maybe__Unabridged___File_035_of_116_4.wav,You're kidding No dear I'm a sucker for a klutz It's where you see what someone is made of My father the great Broadway director Irving Sparks always said anyone can smile on their best day I like to meet a man who can smile on his worst I was his assistant as a younger man just 19 years old sitting in the very last row in the audience of Best Foot Forward when a redheaded chorus girl took a terrible spill,Why was Barney Sparks' father's occupation?,A. He was a doctor,B. He was an actor,C. He was a Broadway director,D. He was an accountant,C. He was a Broadway director,yes,13.105,,,,,,,,,,,,,0,2,2,2,0,0,0,0,,,,,,,,,,,,,,,,,,,,,,,,,,,,,,,,,,,,,,,,,,,,,,,,,,,,,,,,,,,,,,,,,,,,,,,,,,,,,,,,,,,,,,,,,,p_9,001,2024-05-09_17h18.45.829,speech_rate,2023.2.3,None,2024-05-09 17h18.59.414442 -0700,
,Someday_76_condition-2x.wav,Someday__Someday__Maybe__Unabridged___File_035_of_116_4.wav,You're kidding No dear I'm a sucker for a klutz It's where you see what someone is made of My father the great Broadway director Irving Sparks always said anyone can smile on their best day I like to meet a man who can smile on his worst I was his assistant as a younger man just 19 years old sitting in the very last row in the audience of Best Foot Forward when a redheaded chorus girl took a terrible spill,Why was Barney Sparks' father's occupation?,A. He was a doctor,B. He was an actor,C. He was a Broadway director,D. He was an accountant,C. He was a Broadway director,yes,13.105,,,,,,,,,,,,,0,2,2,2,,,,,,,,,,,,,,,,,,,,,,,,,,,,,,,,,,,,,,,,,,,,,,,,,,,,,515.441849583,517.6269549159999,0,,,0,,,1,2.1746707089998836,2.174674374999995,0,,,,,,,,,,,,,,,,,,,,,,,,,,,,,,p_9,001,2024-05-09_17h18.45.829,speech_rate,2023.2.3,None,2024-05-09 17h18.59.414442 -0700,
,Someday_66_condition.wav,Someday__Someday__Maybe__Unabridged___File_032_of_116_1.wav,These are perfect Let's Polaroid these two we might have to cut them in the back though She says you guys really shouldn't fudge your sizes you know she attempts a smile but I can tell she's irritated I Didn't fudge my sizes I say as nicely as I can at least I don't think I did Well what jean size did you give them Eight maybe in inches I mean I'm not sure I didn't know they made pants in sizes like that,What does the woman suggest regarding jeans sizes?,A. The narrator should not fudge her size,B. The narrator should avoid mentioning her size,C. Sizes like eight inches don't exist,D. Smiles are essential for jeans fittings,A. The narrator should not fudge her size,yes,28.64,,,,,,,,,,,,,0,3,3,3,0,0,0,0,0,0,0,0,552.9197766249999,,,,,,,,,,,,,,,520.054349083,520.0838033333332,520.08531625,548.7244713749999,548.724786083,548.7459712079999,549.0140615829998,549.0140615829998,551.0509637079999,551.7294682499999,9.858333333333334,2.2755877500001134,1,[0.6922180840001602],[0.6922208750002028],,,,,,,552.907765208,552.9197766249999,552.9197766249999,579.5615249999998,"The narrator is having a discussion about 
how she did not fake the size of the jeans
that she gave someone, and that she didn't
know they were measured in inches",1,[26.65034995799988],[26.650353332999885],,,,,,,,,,,,,,,,,,,,,,517.6275183329999,517.6340565,517.6340565,517.6340565,520.054077583,1,[2.4259642079998684],[2.4259700000000066],551.72998575,551.7508202499998,552.906587833,1,[1.1753887080001277],[1.1754062919999342],,,,,,,p_9,001,2024-05-09_17h18.45.829,speech_rate,2023.2.3,None,2024-05-09 17h18.59.414442 -0700,
,Someday_66_condition.wav,Someday__Someday__Maybe__Unabridged___File_032_of_116_1.wav,These are perfect Let's Polaroid these two we might have to cut them in the back though She says you guys really shouldn't fudge your sizes you know she attempts a smile but I can tell she's irritated I Didn't fudge my sizes I say as nicely as I can at least I don't think I did Well what jean size did you give them Eight maybe in inches I mean I'm not sure I didn't know they made pants in sizes like that,What does the woman suggest regarding jeans sizes?,A. The narrator should not fudge her size,B. The narrator should avoid mentioning her size,C. Sizes like eight inches don't exist,D. Smiles are essential for jeans fittings,A. The narrator should not fudge her size,yes,28.64,,,,,,,,,,,,,0,3,3,3,0,0,0,0,,,,,,,,,,,,,,,,,,,,,,,,,,,,,,,,,,,,,,,,,,,,,,,,,,,,,,,,,,,,,,,,,,,,,,,,,,,,,,,,,,,,,,,,,,p_9,001,2024-05-09_17h18.45.829,speech_rate,2023.2.3,None,2024-05-09 17h18.59.414442 -0700,
,Someday_66_condition.wav,Someday__Someday__Maybe__Unabridged___File_032_of_116_1.wav,These are perfect Let's Polaroid these two we might have to cut them in the back though She says you guys really shouldn't fudge your sizes you know she attempts a smile but I can tell she's irritated I Didn't fudge my sizes I say as nicely as I can at least I don't think I did Well what jean size did you give them Eight maybe in inches I mean I'm not sure I didn't know they made pants in sizes like that,What does the woman suggest regarding jeans sizes?,A. The narrator should not fudge her size,B. The narrator should avoid mentioning her size,C. Sizes like eight inches don't exist,D. Smiles are essential for jeans fittings,A. The narrator should not fudge her size,yes,28.64,,,,,,,,,,,,,0,3,3,3,,,,,,,,,,,,,,,,,,,,,,,,,,,,,,,,,,,,,,,,,,,,,,,,,,,,,579.5619952079999,588.0383480829998,1,8.463736333000043,8.463739125000075,0,,,0,,,0,,,,,,,,,,,,,,,,,,,,,,,,,,,,,,p_9,001,2024-05-09_17h18.45.829,speech_rate,2023.2.3,None,2024-05-09 17h18.59.414442 -0700,
,Someday_15_condition-5x.wav,Someday__Someday__Maybe__Unabridged___File_009_of_116_3.wav,Whenever Jane talks about Russell Blakely all I can picture is that line everybody was quoting from his last movie Steel Entrapment where he calls out to Cordelia Biscayne honey I'm home while hanging by one hand from the landing gear of a helicopter bare chested Today's special is from the set of Kill Time an assortment of bagels that were only out on the craft service table for about three hours but are not sadly accompanied by cream cheese and that Chinese rice thing that Dan likes which I don't think was too aggressively sneezed upon,What does Russell Blakely call out to Cordelia Biscayne in the movie Steel Entrapment?,A. "Sweetie I'm out",B. "Baby I'm back",C. "Darling I've arrived",D. "Honey I'm home",D. "Honey I'm home",yes,5.87,,,,,,,,,,,,,0,4,4,4,0,0,0,0,0,0,0,0,597.7872586249998,,,,,,,,,,,,,,,589.071397291,589.0870225826666,589.083845291,594.9429224159999,594.958752541,594.9699566249999,595.2265105409999,595.2265105409999,596.425811458,597.189137416,1.0333333333333334,1.4319151660001808,1,[0.772425333000001],[0.7724279579999802],,,,,,,597.7595686249999,597.7872586249998,597.7872586249998,598.221839375,,1,[0.4592227079999702],[0.4592256670000552],,,,,,,,,,,,,,,,,,,,,,588.0389995829998,588.0476577079999,588.0476577079999,588.0476577079999,589.071168125,1,[1.0297018750000007],[1.0297045829997842],597.1896585,597.1950735409998,597.758978541,1,[0.568889666999894],[0.5688923339998837],,,,,,,p_9,001,2024-05-09_17h18.45.829,speech_rate,2023.2.3,None,2024-05-09 17h18.59.414442 -0700,
,Someday_15_condition-5x.wav,Someday__Someday__Maybe__Unabridged___File_009_of_116_3.wav,Whenever Jane talks about Russell Blakely all I can picture is that line everybody was quoting from his last movie Steel Entrapment where he calls out to Cordelia Biscayne honey I'm home while hanging by one hand from the landing gear of a helicopter bare chested Today's special is from the set of Kill Time an assortment of bagels that were only out on the craft service table for about three hours but are not sadly accompanied by cream cheese and that Chinese rice thing that Dan likes which I don't think was too aggressively sneezed upon,What does Russell Blakely call out to Cordelia Biscayne in the movie Steel Entrapment?,A. "Sweetie I'm out",B. "Baby I'm back",C. "Darling I've arrived",D. "Honey I'm home",D. "Honey I'm home",yes,5.87,,,,,,,,,,,,,0,4,4,4,0,0,0,0,,,,,,,,,,,,,,,,,,,,,,,,,,,,,,,,,,,,,,,,,,,,,,,,,,,,,,,,,,,,,,,,,,,,,,,,,,,,,,,,,,,,,,,,,,p_9,001,2024-05-09_17h18.45.829,speech_rate,2023.2.3,None,2024-05-09 17h18.59.414442 -0700,
,Someday_15_condition-5x.wav,Someday__Someday__Maybe__Unabridged___File_009_of_116_3.wav,Whenever Jane talks about Russell Blakely all I can picture is that line everybody was quoting from his last movie Steel Entrapment where he calls out to Cordelia Biscayne honey I'm home while hanging by one hand from the landing gear of a helicopter bare chested Today's special is from the set of Kill Time an assortment of bagels that were only out on the craft service table for about three hours but are not sadly accompanied by cream cheese and that Chinese rice thing that Dan likes which I don't think was too aggressively sneezed upon,What does Russell Blakely call out to Cordelia Biscayne in the movie Steel Entrapment?,A. "Sweetie I'm out",B. "Baby I'm back",C. "Darling I've arrived",D. "Honey I'm home",D. "Honey I'm home",yes,5.87,,,,,,,,,,,,,0,4,4,4,,,,,,,,,,,,,,,,,,,,,,,,,,,,,,,,,,,,,,,,,,,,,,,,,,,,,598.2222838749999,604.4540890409999,0,,,1,6.22007316600002,6.2200762079999095,0,,,0,,,,,,,,,,,,,,,,,,,,,,,,,,,,,,p_9,001,2024-05-09_17h18.45.829,speech_rate,2023.2.3,None,2024-05-09 17h18.59.414442 -0700,
,Someday_82_condition.wav,Someday__Someday__Maybe__Unabridged___File_037_of_116_3.wav,The end Huh I say baffled The end is supposed to show that he's come to terms with who he is It's supposed to show he's been healed Huh I say again I know Fellini can be abstract Dan says eyes gleaming Watch it with me from the beginning sometime I will I smile back at him noticing for the first time the flecks of green in his brown eyes The room seems too dark and quiet suddenly,What color are Dan's eyes,A. Blue with green flecks,B. Deep brown,C. Brown with green flecks,D. Dark green with brown flecks,C. Brown with green flecks,yes,31.15996875,,,,,,,,,,,,,0,5,5,5,0,0,0,0,0,0,0,0,639.8355959159999,,,,,,,,,,,,,,,605.4979509999998,605.5471890829999,605.537596166,636.6898442499999,636.7084467079999,636.7298047909999,636.9323388749999,636.9323388749999,638.1889602909998,638.9465625,9.941666666666666,1.4319283330000872,1,[0.7703092079998441],[0.7703114159999132],,,,,,,639.82493475,639.8355959159999,639.8355959159999,668.875988583,"The narrator is watching the end of the 
film with a guy, who explains that the meaning
is abstract, and she notices his physical attributes",1,[29.048024375000068],[29.048028583000132],,,,,,,,,,,,,,,,,,,,,,604.454567625,604.4609880829998,604.4609880829998,604.4609880829998,605.4977443749999,1,[1.0413728750002065],[1.041375417000154],638.9470571249999,638.9555440409999,639.8242175409998,1,[0.8767119170001934],[0.8767147500000192],,,,,,,p_9,001,2024-05-09_17h18.45.829,speech_rate,2023.2.3,None,2024-05-09 17h18.59.414442 -0700,
,Someday_82_condition.wav,Someday__Someday__Maybe__Unabridged___File_037_of_116_3.wav,The end Huh I say baffled The end is supposed to show that he's come to terms with who he is It's supposed to show he's been healed Huh I say again I know Fellini can be abstract Dan says eyes gleaming Watch it with me from the beginning sometime I will I smile back at him noticing for the first time the flecks of green in his brown eyes The room seems too dark and quiet suddenly,What color are Dan's eyes,A. Blue with green flecks,B. Deep brown,C. Brown with green flecks,D. Dark green with brown flecks,C. Brown with green flecks,yes,31.15996875,,,,,,,,,,,,,0,5,5,5,0,0,0,0,,,,,,,,,,,,,,,,,,,,,,,,,,,,,,,,,,,,,,,,,,,,,,,,,,,,,,,,,,,,,,,,,,,,,,,,,,,,,,,,,,,,,,,,,,p_9,001,2024-05-09_17h18.45.829,speech_rate,2023.2.3,None,2024-05-09 17h18.59.414442 -0700,
,Someday_82_condition.wav,Someday__Someday__Maybe__Unabridged___File_037_of_116_3.wav,The end Huh I say baffled The end is supposed to show that he's come to terms with who he is It's supposed to show he's been healed Huh I say again I know Fellini can be abstract Dan says eyes gleaming Watch it with me from the beginning sometime I will I smile back at him noticing for the first time the flecks of green in his brown eyes The room seems too dark and quiet suddenly,What color are Dan's eyes,A. Blue with green flecks,B. Deep brown,C. Brown with green flecks,D. Dark green with brown flecks,C. Brown with green flecks,yes,31.15996875,,,,,,,,,,,,,0,5,5,5,,,,,,,,,,,,,,,,,,,,,,,,,,,,,,,,,,,,,,,,,,,,,,,,,,,,,668.876482166,680.210042208,0,,,0,,,1,11.324446500000022,11.324450041999853,0,,,,,,,,,,,,,,,,,,,,,,,,,,,,,,p_9,001,2024-05-09_17h18.45.829,speech_rate,2023.2.3,None,2024-05-09 17h18.59.414442 -0700,
,Someday_97_condition-4x.wav,Someday__Someday__Maybe__Unabridged___File_043_of_116_0.wav,Yes Aren't you going to ask me about my show What Yes I'm sorry tell me Well I'm pretty excited actually I just got booked to do my one man show Insights in the basement of Hooligans Hooligans that's great Where is that again You know the Irish bar on Second Avenue it has the basement where Claudia did her poetry reading Oh yeah that Hooligans yeah such a great space,Where will the one-man show be performed?,A. In a theater on Broadway,B. In the basement of an Irish bar,C. At Claudia's poetry reading,D. In a small town in Connecticut,B. In the basement of an Irish bar,no,7.2,,,,,,,,,,,,,0,6,6,6,,,,,,,,,680.219256958,,,,,,,,,,,,,,,681.510054541,681.5255695416665,681.5237274159999,688.7265257909999,688.728610166,688.7398745829998,689.0051342909999,689.0051342909999,690.025000458,692.977150291,5.408333333333333,3.5427790839999034,1,[2.977041500000041],[2.977043999999978],,,,,,,,,,,,,,,692.97755975,700.042688791,1,7.056264916999908,7.05626729200003,0,,,0,,,0,,,,,,,,,,680.2106630409999,680.219256958,680.219256958,680.219256958,681.509809291,1,[1.2966640000001917],[1.2966667080002026],,,,,,,,,,,,,p_9,001,2024-05-09_17h18.45.829,speech_rate,2023.2.3,None,2024-05-09 17h18.59.414442 -0700,
,Someday_31_condition.wav,Someday__Someday__Maybe__Unabridged___File_017_of_116_3.wav,Yeah and then I have stuff you know with all of my agents too I say hands flapping vaguely in the air Very cool Who are you with I realize I'm too exhausted to continue I'm with it's all in my head ink You're what Oh I get it You're kidding Ha Yes I'm kidding I'm currently between agents currently and formerly between them,What is the narrator's current agent situation?,A. She has one agent,B. She has no agents,C. She has more than two agents,D. She has two agents,B. She has no agents,yes,26.97003125,,,,,,,,,,,,,0,7,7,7,0,0,0,0,0,0,0,0,733.8436348749999,,,,,,,,,,,,,,,701.4530569579999,701.4850968333333,701.4853096659999,728.45150625,728.4612435409999,728.483025,728.6850091249999,728.6850091249999,731.0671206659999,731.7635391249999,10,2.559750417000032,1,[0.7057765420001942],[0.7057787500000359],,,,,,,733.8322599999999,733.8436348749999,733.8436348749999,758.631661375,"The narrator is exhausted and tries to make a 
joke to someone who asks about what agency
she's with, but it falls on deaf ears",1,[24.796279874999982],[24.796285958],,,,,,,,,,,,,,,,,,,,,,700.043138708,700.049498375,700.049498375,700.049498375,701.452807916,1,[1.407793374999983],[1.4077962090000256],731.764055291,731.7687015829999,733.831471,1,[2.0669249580000724],[2.0669298750001417],,,,,,,p_9,001,2024-05-09_17h18.45.829,speech_rate,2023.2.3,None,2024-05-09 17h18.59.414442 -0700,
,Someday_31_condition.wav,Someday__Someday__Maybe__Unabridged___File_017_of_116_3.wav,Yeah and then I have stuff you know with all of my agents too I say hands flapping vaguely in the air Very cool Who are you with I realize I'm too exhausted to continue I'm with it's all in my head ink You're what Oh I get it You're kidding Ha Yes I'm kidding I'm currently between agents currently and formerly between them,What is the narrator's current agent situation?,A. She has one agent,B. She has no agents,C. She has more than two agents,D. She has two agents,B. She has no agents,yes,26.97003125,,,,,,,,,,,,,0,7,7,7,0,0,0,0,,,,,,,,,,,,,,,,,,,,,,,,,,,,,,,,,,,,,,,,,,,,,,,,,,,,,,,,,,,,,,,,,,,,,,,,,,,,,,,,,,,,,,,,,,p_9,001,2024-05-09_17h18.45.829,speech_rate,2023.2.3,None,2024-05-09 17h18.59.414442 -0700,
,Someday_31_condition.wav,Someday__Someday__Maybe__Unabridged___File_017_of_116_3.wav,Yeah and then I have stuff you know with all of my agents too I say hands flapping vaguely in the air Very cool Who are you with I realize I'm too exhausted to continue I'm with it's all in my head ink You're what Oh I get it You're kidding Ha Yes I'm kidding I'm currently between agents currently and formerly between them,What is the narrator's current agent situation?,A. She has one agent,B. She has no agents,C. She has more than two agents,D. She has two agents,B. She has no agents,yes,26.97003125,,,,,,,,,,,,,0,7,7,7,,,,,,,,,,,,,,,,,,,,,,,,,,,,,,,,,,,,,,,,,,,,,,,,,,,,,758.6321137079999,764.1482503329999,0,,,1,5.507180292000157,5.507183208000015,0,,,0,,,,,,,,,,,,,,,,,,,,,,,,,,,,,,p_9,001,2024-05-09_17h18.45.829,speech_rate,2023.2.3,None,2024-05-09 17h18.59.414442 -0700,
,Someday_47_condition-5x.wav,Someday__Someday__Maybe__Unabridged___File_024_of_116_3.wav,I almost feel as though I belong in this crowd tonight or that it's possible I could someday Absolute agency You're kidding me Look at you Dina hugs me hard when I tell her the news her perfectly polished red nails squeezing my arms Rockstar And another agency called Sparks Sparks That's Barney Sparks It's just him He's the whole office He's great He's been around a long time Dina holds her wine glass up already half empty and smiles,What does Dina do when the narrator tells her the news?,A. She hugs her,B. She shakes her hand,C. She kisses her,D. She cheers for her,A. She hugs her,yes,6.012,,,,,,,,,,,,,0,8,8,8,0,0,0,0,0,0,0,0,774.480456083,,,,,,,,,,,,,,,764.8649344159999,764.8805429166666,764.8766544999999,770.8878710829999,770.8995192079999,770.9107292909998,771.168180875,771.168180875,773.003397,773.616065041,1,2.068115750000061,1,[0.6215885000001435],[0.6215911670001333],,,,,,,774.469134666,774.480456083,774.480456083,775.497098541,,1,[1.0248367500000768],[1.0248403749999397],,,,,,,,,,,,,,,,,,,,,,764.148796041,764.154538625,764.154538625,764.154538625,764.8647094579999,1,[0.7154554999999618],[0.7154582919999939],773.61660175,773.621417541,774.4683546659999,1,[0.8511758329998429],[0.8511811669998224],,,,,,,p_9,001,2024-05-09_17h18.45.829,speech_rate,2023.2.3,None,2024-05-09 17h18.59.414442 -0700,
,Someday_47_condition-5x.wav,Someday__Someday__Maybe__Unabridged___File_024_of_116_3.wav,I almost feel as though I belong in this crowd tonight or that it's possible I could someday Absolute agency You're kidding me Look at you Dina hugs me hard when I tell her the news her perfectly polished red nails squeezing my arms Rockstar And another agency called Sparks Sparks That's Barney Sparks It's just him He's the whole office He's great He's been around a long time Dina holds her wine glass up already half empty and smiles,What does Dina do when the narrator tells her the news?,A. She hugs her,B. She shakes her hand,C. She kisses her,D. She cheers for her,A. She hugs her,yes,6.012,,,,,,,,,,,,,0,8,8,8,0,0,0,0,,,,,,,,,,,,,,,,,,,,,,,,,,,,,,,,,,,,,,,,,,,,,,,,,,,,,,,,,,,,,,,,,,,,,,,,,,,,,,,,,,,,,,,,,,p_9,001,2024-05-09_17h18.45.829,speech_rate,2023.2.3,None,2024-05-09 17h18.59.414442 -0700,
,Someday_47_condition-5x.wav,Someday__Someday__Maybe__Unabridged___File_024_of_116_3.wav,I almost feel as though I belong in this crowd tonight or that it's possible I could someday Absolute agency You're kidding me Look at you Dina hugs me hard when I tell her the news her perfectly polished red nails squeezing my arms Rockstar And another agency called Sparks Sparks That's Barney Sparks It's just him He's the whole office He's great He's been around a long time Dina holds her wine glass up already half empty and smiles,What does Dina do when the narrator tells her the news?,A. She hugs her,B. She shakes her hand,C. She kisses her,D. She cheers for her,A. She hugs her,yes,6.012,,,,,,,,,,,,,0,8,8,8,,,,,,,,,,,,,,,,,,,,,,,,,,,,,,,,,,,,,,,,,,,,,,,,,,,,,775.497496,782.0671051659999,1,6.561564332999978,6.561566999999968,0,,,0,,,0,,,,,,,,,,,,,,,,,,,,,,,,,,,,,,p_9,001,2024-05-09_17h18.45.829,speech_rate,2023.2.3,None,2024-05-09 17h18.59.414442 -0700,
,Someday_38_condition-4x.wav,Someday__Someday__Maybe__Unabridged___File_021_of_116_0.wav,Standing this close to him for the second time it occurs to me that his scarf is homemade and I feel a pang of jealousy wondering who knit it for him I like to be cold I say in what I hope is an appealing yet mysterious way that will make him regret not calling me while trying not to shiver Did you were you just in there I ask eyeing him carefully please God say no In the audience Yeah I was standing in the back It's over They just had curtain call,What does the narrator feel jealous about?,A. The actor's performance,B. The actor's homemade scarf,C. The audience's response,D. The actor's phone call,B. The actor's homemade scarf,no,7.395,,,,,,,,,,,,,0,9,9,9,,,,,,,,,782.0808929579998,,,,,,,,,,,,,,,782.7887452079999,782.8043471666665,782.8017567499999,790.187441666,790.200752208,790.211584291,790.418827625,790.418827625,792.4918498329998,793.426932291,3.2416666666666667,2.252768041000081,1,[0.9441079579999041],[0.944110457999841],,,,,,,,,,,,,,,793.4273560409999,800.1150215,0,,,0,,,1,6.679682250000042,6.6796847499999785,0,,,,,,,,,,782.0676546249999,782.0808929579998,782.0808929579998,782.0808929579998,782.788502958,1,[0.7188766249998935],[0.7188792919998832],,,,,,,,,,,,,p_9,001,2024-05-09_17h18.45.829,speech_rate,2023.2.3,None,2024-05-09 17h18.59.414442 -0700,
,Someday_44_condition-3x.wav,Someday__Someday__Maybe__Unabridged___File_024_of_116_0.wav,It's such a talent to be able to make people laugh but God forbid you end up on something joyless and soul crushing like that show with all the nurses Hello New York The first person I spot outside the theater is Dina smoking with a few other classmates Dina is one of the older members of our class in her 40s maybe and is still sort of famous from a show she did in the 80s called There's Pierre which I remember watching all the time growing up but she never mentions it so I don't either,What show does the narrator consider joyless and soul-crushing?,A. A show about nurses,B. A show called "Hello New York",C. A show from the 80s,D. A show with Dina,A. A show about nurses,yes,11.2275,,,,,,,,,,,,,0,10,10,10,0,0,0,0,0,0,0,0,818.7032509579999,,,,,,,,,,,,,,,801.400457625,801.4158825416666,801.418624166,812.6392188749999,812.652077791,812.6632816249999,812.8699429999999,812.8699429999999,815.382323,815.99507875,9.408333333333333,2.6919445839998843,1,[0.6248363340000651],[0.624838834000002],,,,,,,818.692829541,818.7032509579999,818.7032509579999,845.219835375,"The narrator talks about being funny and
seeing an old classmate, Dina, who was famous
on a show in the eighties that she doesn't mention
so the narrator doeesn't either",1,[26.523867542000062],[26.523870834000036],,,,,,,,,,,,,,,,,,,,,,800.1154938329998,800.1215749159999,800.1215749159999,800.1215749159999,801.4002168329998,1,[1.282910500000071],[1.2829131670000606],815.9956621249999,816.0009143749999,818.692105916,1,[2.6957556669999576],[2.6957584580000002],,,,,,,p_9,001,2024-05-09_17h18.45.829,speech_rate,2023.2.3,None,2024-05-09 17h18.59.414442 -0700,
,Someday_44_condition-3x.wav,Someday__Someday__Maybe__Unabridged___File_024_of_116_0.wav,It's such a talent to be able to make people laugh but God forbid you end up on something joyless and soul crushing like that show with all the nurses Hello New York The first person I spot outside the theater is Dina smoking with a few other classmates Dina is one of the older members of our class in her 40s maybe and is still sort of famous from a show she did in the 80s called There's Pierre which I remember watching all the time growing up but she never mentions it so I don't either,What show does the narrator consider joyless and soul-crushing?,A. A show about nurses,B. A show called "Hello New York",C. A show from the 80s,D. A show with Dina,A. A show about nurses,yes,11.2275,,,,,,,,,,,,,0,10,10,10,0,0,0,0,,,,,,,,,,,,,,,,,,,,,,,,,,,,,,,,,,,,,,,,,,,,,,,,,,,,,,,,,,,,,,,,,,,,,,,,,,,,,,,,,,,,,,,,,,p_9,001,2024-05-09_17h18.45.829,speech_rate,2023.2.3,None,2024-05-09 17h18.59.414442 -0700,
,Someday_44_condition-3x.wav,Someday__Someday__Maybe__Unabridged___File_024_of_116_0.wav,It's such a talent to be able to make people laugh but God forbid you end up on something joyless and soul crushing like that show with all the nurses Hello New York The first person I spot outside the theater is Dina smoking with a few other classmates Dina is one of the older members of our class in her 40s maybe and is still sort of famous from a show she did in the 80s called There's Pierre which I remember watching all the time growing up but she never mentions it so I don't either,What show does the narrator consider joyless and soul-crushing?,A. A show about nurses,B. A show called "Hello New York",C. A show from the 80s,D. A show with Dina,A. A show about nurses,yes,11.2275,,,,,,,,,,,,,0,10,10,10,,,,,,,,,,,,,,,,,,,,,,,,,,,,,,,,,,,,,,,,,,,,,,,,,,,,,845.220340541,852.0048978749999,1,6.772947999999815,6.772950707999826,0,,,0,,,0,,,,,,,,,,,,,,,,,,,,,,,,,,,,,,p_9,001,2024-05-09_17h18.45.829,speech_rate,2023.2.3,None,2024-05-09 17h18.59.414442 -0700,
,Someday_124_condition-5x.wav,Someday__Someday__Maybe__Unabridged___File_054_of_116_4.wav,If I come home to you eating a pint of Haagen Dazs and watching When Harry Met Sally I'm calling the police What are they going to do arrest me for being a cliché So when the phone rings at 1130 that morning I lunge for it grabbing it on the second ring I'll pretend to Jane I'm in good spirits I'll act peppy as if I've been up for hours Hello this is Richard calling from Absolute Artists Is Franny there,Who calls the main character from Absolute Artists?,A. Barney Sparks,B. Richard,C. Jane,D. Dan,B. Richard,no,5.754,,,,,,,,,,,,,0,11,11,11,,,,,,,,,852.018416291,,,,,,,,,,,,,,,852.769897958,852.7855234166666,852.7815067909999,858.523127208,858.5420225,858.5532653749999,858.8070905,858.8070905,860.7074917909999,861.3975209159998,1.4583333333333335,2.1284244169999056,1,[0.6991127080000297],[0.6991149580001093],,,,,,,,,,,,,,,861.397963166,865.0281488749999,0,,,1,3.623224374999836,3.623227166999868,0,,,0,,,,,,,,,,852.005443708,852.018416291,852.018416291,852.018416291,852.7696988329999,1,[0.7621936660000301],[0.7621964160000516],,,,,,,,,,,,,p_9,001,2024-05-09_17h18.45.829,speech_rate,2023.2.3,None,2024-05-09 17h18.59.414442 -0700,
,Someday_101_condition-4x.wav,Someday__Someday__Maybe__Unabridged___File_044_of_116_3.wav,Okay great I say too forcefully So should I do it into the camera or I'm looking around vacantly not sure where to focus somehow not finding where the lens is Ah there's no camera here today since there's no scene exactly Tell you what why don't you just do it for Arthur here he says pointing to a painfully thin man with red hair and freckles to his left who looks not exactly happy to have been chosen as my target Okay great,Why won't the narrator have to perform in front of a camera during the audition?,A. Because there is no camera available,B. Because the scene doesn't require it,C. Because Arthur will perform it instead,D. Because the narrator refused to do it,B. Because the scene doesn't require it,yes,7.435,,,,,,,,,,,,,0,12,12,12,0,0,0,0,0,0,0,0,878.3201019579999,,,,,,,,,,,,,,,866.9768259579998,866.9927101246665,866.9883937499999,874.4277023329998,874.4281946659999,874.4385190829998,874.644635416,874.644635416,876.554187666,877.3103854999999,3.075,2.091379208000035,1,[0.7652334580000115],[0.765235832999906],,,,,,,878.2923908329999,878.3201019579999,878.3201019579999,883.255441625,"Ok great, he, scene",1,[4.959531541999922],[4.959534500000018],,,,,,,,,,,,,,,,,,,,,,865.0286106659998,865.0347556249999,865.0347556249999,865.0347556249999,866.9766232499999,1,[1.9465974160000314],[1.9466012079999473],877.3108937909999,877.319251875,878.2915445409999,1,[0.9796802920000118],[0.9796913330001189],,,,,,,p_9,001,2024-05-09_17h18.45.829,speech_rate,2023.2.3,None,2024-05-09 17h18.59.414442 -0700,
,Someday_101_condition-4x.wav,Someday__Someday__Maybe__Unabridged___File_044_of_116_3.wav,Okay great I say too forcefully So should I do it into the camera or I'm looking around vacantly not sure where to focus somehow not finding where the lens is Ah there's no camera here today since there's no scene exactly Tell you what why don't you just do it for Arthur here he says pointing to a painfully thin man with red hair and freckles to his left who looks not exactly happy to have been chosen as my target Okay great,Why won't the narrator have to perform in front of a camera during the audition?,A. Because there is no camera available,B. Because the scene doesn't require it,C. Because Arthur will perform it instead,D. Because the narrator refused to do it,B. Because the scene doesn't require it,yes,7.435,,,,,,,,,,,,,0,12,12,12,0,0,0,0,,,,,,,,,,,,,,,,,,,,,,,,,,,,,,,,,,,,,,,,,,,,,,,,,,,,,,,,,,,,,,,,,,,,,,,,,,,,,,,,,,,,,,,,,,p_9,001,2024-05-09_17h18.45.829,speech_rate,2023.2.3,None,2024-05-09 17h18.59.414442 -0700,
,Someday_101_condition-4x.wav,Someday__Someday__Maybe__Unabridged___File_044_of_116_3.wav,Okay great I say too forcefully So should I do it into the camera or I'm looking around vacantly not sure where to focus somehow not finding where the lens is Ah there's no camera here today since there's no scene exactly Tell you what why don't you just do it for Arthur here he says pointing to a painfully thin man with red hair and freckles to his left who looks not exactly happy to have been chosen as my target Okay great,Why won't the narrator have to perform in front of a camera during the audition?,A. Because there is no camera available,B. Because the scene doesn't require it,C. Because Arthur will perform it instead,D. Because the narrator refused to do it,B. Because the scene doesn't require it,yes,7.435,,,,,,,,,,,,,0,12,12,12,,,,,,,,,,,,,,,,,,,,,,,,,,,,,,,,,,,,,,,,,,,,,,,,,,,,,883.2559417499999,891.841880041,0,,,1,8.573911834,8.573914917000138,0,,,0,,,,,,,,,,,,,,,,,,,,,,,,,,,,,,p_9,001,2024-05-09_17h18.45.829,speech_rate,2023.2.3,None,2024-05-09 17h18.59.414442 -0700,
,Someday_55_condition.wav,Someday__Someday__Maybe__Unabridged___File_027_of_116_3.wav,I'm mesmerized by her easy way with the awkward looking spoon shaped strainer that holds the tiny leaves and by the diamond engagement ring that glitters on her hand I wonder if she ever takes it off and if it has a napkin it rests on at night too Milk or lemon she asks Um milk I guess Everett and I are the same age but something about the formal way she does everything makes me sit up straighter on the sofa as if I'm at the house of an older relative instead of in my own living room in Brooklyn,What does the narrator do when talking to Everett?,A. She sits up straight,B. She talks with a deeper voice,C. She avoids eye contact,D. She lowers her voice,A. She sits up straight,no,28.95996875,,,,,,,,,,,,,0,13,13,13,,,,,,,,,891.8544197909998,,,,,,,,,,,,,,,893.6391659999999,893.6711382493331,893.6716718329999,922.629682583,922.632172541,922.653572166,922.85933275,922.85933275,924.3829933749998,925.124528458,10,1.7021919579999576,1,[0.7503708330000336],[0.7503737080000974],,,,,,,,,,,,,,,925.1250331249998,927.7245694999999,1,2.590768457999957,2.590771166999957,0,,,0,,,0,,,,,,,,,,891.842453166,891.8544197909998,891.8544197909998,891.8544197909998,893.638910791,1,[1.795915708000166],[1.7959185419999812],,,,,,,,,,,,,p_9,001,2024-05-09_17h18.45.829,speech_rate,2023.2.3,None,2024-05-09 17h18.59.414442 -0700,
,Someday_28_condition-3x.wav,Someday__Someday__Maybe__Unabridged___File_017_of_116_0.wav,He has some sort of accent almost a drawl He's from the south somewhere Maybe he grew up on a farm in Texas or Georgia Maybe he had chores in the barn every day and helped his father harvest corn He still hasn't looked away from me He stands perfectly still not shifting at all I can feel myself rocking back and forth on my feet I try to stay steady like he does but it's impossible for me to do I really like your work in class I say ducking my head Oh yeah,How does the narrator feel about the person she encounters on the street?,A. She dislikes them,B. She is indifferent,C. She admires their work,D. She is terrified,C. She admires their work,no,10.55625,,,,,,,,,,,,,0,14,14,14,,,,,,,,,927.7325692909999,,,,,,,,,,,,,,,935.0247611249999,935.0401859576666,935.040059083,945.6078606659999,945.6097909999999,945.620735083,945.822199875,945.822199875,947.0511314999999,947.6814752079999,8.041666666666668,1.4049154169999838,1,[0.639777290999973],[0.6397796659998676],,,,,,,,,,,,,,,947.6819190829999,951.3761789579999,0,,,0,,,1,3.685558791999938,3.685561792000044,0,,,,,,,,,,927.7251146659999,927.7325692909999,927.7325692909999,927.7325692909999,935.0244547079999,1,[7.29770666599984],[7.297710082999856],,,,,,,,,,,,,p_9,001,2024-05-09_17h18.45.829,speech_rate,2023.2.3,None,2024-05-09 17h18.59.414442 -0700,
,Someday_48_condition-5x.wav,Someday__Someday__Maybe__Unabridged___File_025_of_116_1.wav,But why not It's every actor's dream to perform on Broadway I protest and she gives me an indulgent smile I don't mean to shit on your dreams sweetie but I'm mainly out of show business these days This is as close as I want to be to that life she says putting her arm around Leighton's waist I just lost what the point of it all was,What is every actor's dream according to the narrator?,A. Performing in front of 1000 people,B. Performing in a Hollywood movie,C. Performing in an independent movie,D. Performing in a Broadway play,D. Performing in a Broadway play,no,4.144,,,,,,,,,,,,,0,15,15,15,,,,,,,,,951.3844756249998,,,,,,,,,,,,,,,952.825385458,952.8412495826665,952.835715708,956.981665708,956.9866345409998,956.9979174999999,957.1993116659999,957.1993116659999,958.8422331659999,959.5528140409999,1,1.8172850840001047,1,[0.7199075409998841],[0.7199111659999744],,,,,,,,,,,,,,,959.553247416,961.2657692079999,1,1.7025522080000428,1.7025547499999902,0,,,0,,,0,,,,,,,,,,951.376759,951.3844756249998,951.3844756249998,951.3844756249998,952.825193791,1,[1.4465828340000826],[1.4465855420000935],,,,,,,,,,,,,p_9,001,2024-05-09_17h18.45.829,speech_rate,2023.2.3,None,2024-05-09 17h18.59.414442 -0700,
,Someday_6_condition-5x.wav,Someday__Someday__Maybe__Unabridged___File_006_of_116_0.wav,Why I'm having audition anxiety dreams A wave of dread crashes over me as I remember When I looked at the year at a glance calendar and my brown leather file of facts last night I realized that as of today there are exactly six months left on the deal I made with myself when I first came to New York that I'd see what I could accomplish in three years But if I wasn't well on my way to having a real career as an actor by then I absolutely wouldn't keep at it after that,What is the reason for the narrator's audition anxiety dreams?,A. She forgot her lines in an audition,B. She's worried about a three-year career goal,C. She's excited about her upcoming auditions,D. She's afraid of flying to auditions,B. She's worried about a three-year career goal,yes,5.944,,,,,,,,,,,,,0,16,16,16,0,0,0,0,0,0,0,0,974.0928471249999,,,,,,,,,,,,,,,964.749405458,964.7647912496666,964.760822,970.7095097499998,970.711716708,970.722945041,970.928196416,970.928196416,972.493011708,973.016520166,2.0083333333333333,1.745603790999894,1,[0.5328464579999945],[0.5328495419998944],,,,,,,974.080629458,974.0928471249999,974.0928471249999,979.477637166,"Months, years, career",1,[5.393458083000041],[5.393461207999962],,,,,,,,,,,,,,,,,,,,,,961.2662424159998,961.2732303749999,961.2732303749999,961.2732303749999,964.7491346659999,1,[3.481282209000028],[3.481287666999833],973.017030833,973.024904875,974.0798184579999,1,[1.0616788329998599],[1.0616995000000315],,,,,,,p_9,001,2024-05-09_17h18.45.829,speech_rate,2023.2.3,None,2024-05-09 17h18.59.414442 -0700,
,Someday_6_condition-5x.wav,Someday__Someday__Maybe__Unabridged___File_006_of_116_0.wav,Why I'm having audition anxiety dreams A wave of dread crashes over me as I remember When I looked at the year at a glance calendar and my brown leather file of facts last night I realized that as of today there are exactly six months left on the deal I made with myself when I first came to New York that I'd see what I could accomplish in three years But if I wasn't well on my way to having a real career as an actor by then I absolutely wouldn't keep at it after that,What is the reason for the narrator's audition anxiety dreams?,A. She forgot her lines in an audition,B. She's worried about a three-year career goal,C. She's excited about her upcoming auditions,D. She's afraid of flying to auditions,B. She's worried about a three-year career goal,yes,5.944,,,,,,,,,,,,,0,16,16,16,0,0,0,0,,,,,,,,,,,,,,,,,,,,,,,,,,,,,,,,,,,,,,,,,,,,,,,,,,,,,,,,,,,,,,,,,,,,,,,,,,,,,,,,,,,,,,,,,,p_9,001,2024-05-09_17h18.45.829,speech_rate,2023.2.3,None,2024-05-09 17h18.59.414442 -0700,
,Someday_6_condition-5x.wav,Someday__Someday__Maybe__Unabridged___File_006_of_116_0.wav,Why I'm having audition anxiety dreams A wave of dread crashes over me as I remember When I looked at the year at a glance calendar and my brown leather file of facts last night I realized that as of today there are exactly six months left on the deal I made with myself when I first came to New York that I'd see what I could accomplish in three years But if I wasn't well on my way to having a real career as an actor by then I absolutely wouldn't keep at it after that,What is the reason for the narrator's audition anxiety dreams?,A. She forgot her lines in an audition,B. She's worried about a three-year career goal,C. She's excited about her upcoming auditions,D. She's afraid of flying to auditions,B. She's worried about a three-year career goal,yes,5.944,,,,,,,,,,,,,0,16,16,16,,,,,,,,,,,,,,,,,,,,,,,,,,,,,,,,,,,,,,,,,,,,,,,,,,,,,979.4781270409999,983.020405666,0,,,1,3.531153375000031,3.531156375000137,0,,,0,,,,,,,,,,,,,,,,,,,,,,,,,,,,,,p_9,001,2024-05-09_17h18.45.829,speech_rate,2023.2.3,None,2024-05-09 17h18.59.414442 -0700,
,Someday_26_condition-2x.wav,Someday__Someday__Maybe__Unabridged___File_015_of_116_2.wav,My stomach lurches The action between each line is the exact opposite of what the line is After kids are my number one priority it says rushing mom gets daughter to school just as the bell is ringing After the thing about always having time for friends looks at answering machine guiltily and decides to screen the call At the end the harried housewife stuffs an impossible amount of dirty clothes in the washer which miraculously come out clean and she gets a huge hug from her approving husband,What is the narrator's reaction to the script she's reading?,A. Her stomach lurches,B. She finds it amusing,C. She feels inspired,D. She is moved to tears,A. Her stomach lurches,no,13.94496875,,,,,,,,,,,,,0,17,17,17,,,,,,,,,983.0284287079999,,,,,,,,,,,,,,,984.0941645409998,984.1097762916665,984.1139580829999,998.045127333,998.0629923749998,998.0845925409999,998.2878714999997,998.2878714999997,1000.3096489999998,1000.9619010000001,10,2.1976898750003784,1,[0.6646997920001922],[0.6647020420000445],,,,,,,,,,,,,,,1000.9624159579998,1007.5456211249998,1,6.574761875000149,6.574764542000139,0,,,0,,,0,,,,,,,,,,983.0210206659999,983.0284287079999,983.0284287079999,983.0284287079999,984.093958083,1,[1.0712087500000962],[1.0712115840001388],,,,,,,,,,,,,p_9,001,2024-05-09_17h18.45.829,speech_rate,2023.2.3,None,2024-05-09 17h18.59.414442 -0700,
,Someday_116_condition.wav,Someday__Someday__Maybe__Unabridged___File_052_of_116_0.wav,Yes I noticed that this may come as a shock to you But many studies have shown there's at least a slight nutritional difference between spinach that's rotting in the crisper drawer and spinach That's ingested into the body Details I scoff I give up she says heading for the kitchen more coffee I Stare down at my bagel which seems to I me warily back Maybe Jane's right Maybe I need more education I wonder what Penelope schlotzky eats on Sunday Probably not bagels,What does the narrator stare down at?,A. A bagel,B. Some spinach,C. A cup of coffee,D. A cup of tea,A. A bagel,no,28.58,,,,,,,,,,,,,0,18,18,18,,,,,,,,,1007.5524717079998,,,,,,,,,,,,,,,1008.9791329159998,1009.011087791333,1009.0103085410001,1037.5964709999998,1037.5986374999998,1037.6199536660001,1037.8199425829998,1037.8199425829998,1039.2731759160001,1040.174188041,10,1.6256175419998726,1,[0.9101838329997918],[0.9101860830000987],,,,,,,,,,,,,,,1040.1746520829997,1042.4293736250002,1,2.247532208999928,2.2475345840002774,0,,,0,,,0,,,,,,,,,,1007.5462562080002,1007.5524717079998,1007.5524717079998,1007.5524717079998,1008.978909125,1,[1.4319498750001003],[1.431952750000164],,,,,,,,,,,,,p_9,001,2024-05-09_17h18.45.829,speech_rate,2023.2.3,None,2024-05-09 17h18.59.414442 -0700,
,Someday_103_condition.wav,Someday__Someday__Maybe__Unabridged___File_045_of_116_1.wav,So I let it soften back down to the small giggle and finally exhausted but happy I let out a little sigh that's interrupted by an almost involuntary hiccup like I gulp down too much champagne all at once It's a blur from that point on a series of snapshots that flashed before me The woman in the back mouthing see to the disgruntled man who nods and shrugs at her in a way That says who knew and the man in glasses asking me to wait in the waiting room,What happens after the narrator finishes their audition?,A. She is congratulated by the casting director,B. She is asked to perform the laugh again,C. She is asked to wait in the waiting room,D. She is immediately given the role,C. She is asked to wait in the waiting room,no,28.64,,,,,,,,,,,,,0,19,19,19,,,,,,,,,1042.4357596249997,,,,,,,,,,,,,,,1044.022719041,1044.054688166333,1044.0531225,1072.6882512910001,1072.699536916,1072.72061875,1072.920811291,1072.920811291,1074.6305279580001,1075.5991856659998,10,1.8819568750000144,1,[0.9816234999998414],[0.9816258750001907],,,,,,,,,,,,,,,1075.5996598329998,1090.5150707499997,0,,,0,,,1,14.906239375000041,14.90624200000002,0,,,,,,,,,,1042.429824416,1042.4357596249997,1042.4357596249997,1042.4357596249997,1044.022510958,1,[1.5911394169997948],[1.5911419999997634],,,,,,,,,,,,,p_9,001,2024-05-09_17h18.45.829,speech_rate,2023.2.3,None,2024-05-09 17h18.59.414442 -0700,
,Someday_54_condition-5x.wav,Someday__Someday__Maybe__Unabridged___File_027_of_116_2.wav,It's made of navy blue quilted leather and has a gold chain instead of a strap and she told me once it was a college graduation gift from her parents She usually leaves it out on the table and she always lays one of our cloth napkins underneath it I'm fascinated by the bag because to my knowledge it's the single most expensive item I've ever seen up close but the napkin thing always bothers me as if she's implying our housekeeping isn't quite up to her standards Still Everett's perfectly nice and I want her to feel welcome here,What is distinctive about Everett's Chanel bag?,A. It's bright red,B. It's made of velvet,C. It has a gold chain strap,D. It's a gift from the narrator,C. It has a gold chain strap,no,5.802,,,,,,,,,,,,,0,20,20,20,,,,,,,,,1090.5216089159999,,,,,,,,,,,,,,,1091.858164875,1091.8741157916668,1091.8706794159998,1097.6832306249999,1097.685394791,1097.6966148329998,1097.9001210410001,1097.9001210410001,1099.271063583,1100.078681125,1.9916666666666665,1.5500753329997679,1,[0.8167094169998563],[0.8167116670001633],,,,,,,,,,,,,,,1100.0791574579998,1105.357384416,0,,,0,,,0,,,1,5.2700525830000515,5.270055082999988,,,,,,,,1090.515532375,1090.5216089159999,1090.5216089159999,1090.5216089159999,1091.8579638329998,1,[1.340960874999837],[1.3409635419998267],,,,,,,,,,,,,p_9,001,2024-05-09_17h18.45.829,speech_rate,2023.2.3,None,2024-05-09 17h18.59.414442 -0700,
,Someday_112_condition-4x.wav,Someday__Someday__Maybe__Unabridged___File_049_of_116_0.wav,It was all a blur of papers coming off the roll from the fax machine and time spent rushing from one building in Manhattan to another But then we ran out of fax paper and I kept forgetting to get a new roll so I had to cold read a few times and I'll admit there were a few days when I showed up at an audition not really prepared And then there was the big audition I had prepared for a small part in a Broadway play directed by Mike Stanley But I was so nervous to meet him that I left out an entire page of the scene and he didn't ask me to read it again,What happened during the narrator's audition for a Broadway play directed by Mike Stanley?,A. The narrator performed exceptionally well,B. The narrator forgot to bring her audition materials,C. The narrator left out an entire page of the scene,D. The narrator received a callback for another audition,C. The narrator left out an entire page of the scene,no,7.57,,,,,,,,,,,,,0,21,21,21,,,,,,,,,1105.364859416,,,,,,,,,,,,,,,1106.356939833,1106.3725320416668,1106.37016025,1113.9508880409999,1113.952967958,1113.9642020410001,1114.1703094579998,1114.1703094579998,1116.323545708,1117.4691309579998,3.4333333333333336,2.3343142500002614,1,[1.1551428749999104],[1.155145457999879],,,,,,,,,,,,,,,1117.469641666,1125.212274041,0,,,0,,,1,7.730890957999691,7.7308938329997545,0,,,,,,,,,,1105.3578642909997,1105.364859416,1105.364859416,1105.364859416,1106.3567600830002,1,[0.9974145410001256],[0.9974172910001471],,,,,,,,,,,,,p_9,001,2024-05-09_17h18.45.829,speech_rate,2023.2.3,None,2024-05-09 17h18.59.414442 -0700,
,Someday_23_condition-2x.wav,Someday__Someday__Maybe__Unabridged___File_014_of_116_0.wav,If you don't have any questions about the material then state your name and agency and go ahead whenever you're ready thanks so much I try to swallow but my throat is too dry This is the kind of room that's hard to do well in If they're in the mood to talk I can crack a few jokes make a small connection give myself a moment to settle down but these girls are all business I look down at the paper I'm not going to panic or ask for more time or tell them I didn't really have a chance to go over it yet I'm going to remain calm as if I'm a professional,How does the narrator plan to handle the situation in the room?,A. By making small talk and jokes,B. By panicking and asking for more time,C. By admitting she didn't prepare,D. By remaining calm and professional,D. By remaining calm and professional,no,14.64996875,,,,,,,,,,,,,0,22,22,22,,,,,,,,,1125.220122666,,,,,,,,,,,,,,,1126.239978125,1126.2554685826665,1126.2597865409998,1140.9027997499998,1140.9210165,1140.9322322499997,1141.138864,1141.138864,1143.0035573330001,1144.586993041,8.158333333333333,3.1009050419997948,1,[1.5924150000000736],[1.592417542000021],,,,,,,,,,,,,,,1144.5874802909998,1149.4039683329997,0,,,0,,,0,,,1,4.806704624999838,4.806707957999606,,,,,,,,1125.2129272500001,1125.220122666,1125.220122666,1125.220122666,1126.239734958,1,[1.0248280839996369],[1.024831083999743],,,,,,,,,,,,,p_9,001,2024-05-09_17h18.45.829,speech_rate,2023.2.3,None,2024-05-09 17h18.59.414442 -0700,
,Someday_12_condition-3x.wav,Someday__Someday__Maybe__Unabridged___File_008_of_116_4.wav,Of course the wedding's not until June but if you wanna stay at the Sands by the shore she said to book early Okay thanks Franny I'm worried about you Why Well from my initial calculations this new telephone identification system could save you upwards of 20 to 25 seconds per day I'm concerned about how you'll adjust to all the new free time Har har Also one of my students says there's a show called Friends Apparently it's a popular one Maybe you should try to apply for that,What does the narrator's father joke about regarding caller ID?,A. The invention of the telephone,B. The inconvenience of caller ID,C. The potential time saved with caller ID,D. The popularity of caller ID,C. The potential time saved with caller ID,yes,11.145,,,,,,,,,,,,,0,23,23,23,0,0,0,0,0,0,0,0,1167.440375791,,,,,,,,,,,,,,,1150.775044125,1150.7905561666664,1150.791620041,1161.936984166,1161.940598666,1161.951818125,1162.15358625,1162.15358625,1164.138823458,1165.742226625,8.416666666666668,2.6660267500001282,1,[1.6127421249998406],[1.6127444170001581],,,,,,,1167.42977625,1167.440375791,1167.440375791,1196.096969791,"The person talking to the narrator jokes that new
telephone rates will give her more free time, and 
also tells the narrator abotu a show called friends
that they think they should audition for",1,[28.663882750000084],[28.663886249999905],,,,,,,,,,,,,,,,,,,,,,1149.4045259159998,1149.410384541,1149.410384541,1149.410384541,1150.7748027080002,1,[1.369761667000148],[1.369764208000106],1165.7428057500001,1165.7530201659997,1167.428913625,1,[1.6854157500001747],[1.6854185000001962],,,,,,,p_9,001,2024-05-09_17h18.45.829,speech_rate,2023.2.3,None,2024-05-09 17h18.59.414442 -0700,
,Someday_12_condition-3x.wav,Someday__Someday__Maybe__Unabridged___File_008_of_116_4.wav,Of course the wedding's not until June but if you wanna stay at the Sands by the shore she said to book early Okay thanks Franny I'm worried about you Why Well from my initial calculations this new telephone identification system could save you upwards of 20 to 25 seconds per day I'm concerned about how you'll adjust to all the new free time Har har Also one of my students says there's a show called Friends Apparently it's a popular one Maybe you should try to apply for that,What does the narrator's father joke about regarding caller ID?,A. The invention of the telephone,B. The inconvenience of caller ID,C. The potential time saved with caller ID,D. The popularity of caller ID,C. The potential time saved with caller ID,yes,11.145,,,,,,,,,,,,,0,23,23,23,0,0,0,0,,,,,,,,,,,,,,,,,,,,,,,,,,,,,,,,,,,,,,,,,,,,,,,,,,,,,,,,,,,,,,,,,,,,,,,,,,,,,,,,,,,,,,,,,,p_9,001,2024-05-09_17h18.45.829,speech_rate,2023.2.3,None,2024-05-09 17h18.59.414442 -0700,
,Someday_12_condition-3x.wav,Someday__Someday__Maybe__Unabridged___File_008_of_116_4.wav,Of course the wedding's not until June but if you wanna stay at the Sands by the shore she said to book early Okay thanks Franny I'm worried about you Why Well from my initial calculations this new telephone identification system could save you upwards of 20 to 25 seconds per day I'm concerned about how you'll adjust to all the new free time Har har Also one of my students says there's a show called Friends Apparently it's a popular one Maybe you should try to apply for that,What does the narrator's father joke about regarding caller ID?,A. The invention of the telephone,B. The inconvenience of caller ID,C. The potential time saved with caller ID,D. The popularity of caller ID,C. The potential time saved with caller ID,yes,11.145,,,,,,,,,,,,,0,23,23,23,,,,,,,,,,,,,,,,,,,,,,,,,,,,,,,,,,,,,,,,,,,,,,,,,,,,,1196.097480541,1204.98379075,0,,,0,,,1,8.875923958000385,8.875927083000079,0,,,,,,,,,,,,,,,,,,,,,,,,,,,,,,p_9,001,2024-05-09_17h18.45.829,speech_rate,2023.2.3,None,2024-05-09 17h18.59.414442 -0700,
,Someday_45_condition-5x.wav,Someday__Someday__Maybe__Unabridged___File_024_of_116_1.wav,She's one of my best friends in class but I wonder sometimes how she feels about having gone from the lead of a hit TV show to commercials which is mainly what she does now and not the kind where she's playing Dina Shannon formerly of the hit show There's Pierre but just a regular actor pretending to like one brand of orange juice over another Anything she says flicking an ash on the ground Um yeah actually I got two callbacks with agencies Yeah she says you only need one,"What show did Dina, the actress, use to lead?",A. Friends,B. There's Pierre,C. Cordelia Biscayne,D. The House of Mirth,B. There's Pierre,no,5.804,,,,,,,,,,,,,0,24,24,24,,,,,,,,,1204.99157125,,,,,,,,,,,,,,,1207.3405120409998,1207.3558575826667,1207.3529696659998,1213.146538208,1213.162340166,1213.173566125,1213.4365790829997,1213.4365790829997,1216.5118363329998,1217.6295706659998,1.4833333333333334,3.313853042000119,1,[1.126623833999929],[1.1266262919998553],,,,,,,,,,,,,,,1217.630003625,1221.093262708,0,,,0,,,0,,,1,3.4545351669999036,3.454538207999576,,,,,,,,1204.9843795829997,1204.99157125,1204.99157125,1204.99157125,1207.340205208,1,[2.3539925830000357],[2.3539983329997085],,,,,,,,,,,,,p_9,001,2024-05-09_17h18.45.829,speech_rate,2023.2.3,None,2024-05-09 17h18.59.414442 -0700,
,Someday_87_condition-4x.wav,Someday__Someday__Maybe__Unabridged___File_039_of_116_0.wav,The reception area is a soothing soft grey Everything is plush and velvet The carpet looks like shiny grey silk and the sofa is a silvery suede that appears freshly brushed as though no one has ever sat on it There's a long reception desk behind which sit two of the most beautiful people I have ever seen also swathed in grey The perfect specimen male is reading a script and the perfect specimen female is on a headset talking to someone in a British accent,How does the narrator describe the reception area of Absolute Artists?,A. It's brightly colored,B. It's cold and uninviting,C. It's plush and soothing,D. It's chaotic and messy,C. It's plush and soothing,yes,7.12,,,,,,,,,,,,,0,25,25,25,0,0,0,0,0,0,0,0,1237.1405544999998,,,,,,,,,,,,,,,1226.0414959159998,1226.0569139166666,1226.0541884159998,1233.174412166,1233.179751666,1233.2021260000001,1233.4096574159998,1233.4096574159998,1235.168232041,1235.7580120829998,4.958333333333334,1.936154333000104,1,[0.5991254590003336],[0.5991278340002282],,,,,,,1237.1128009579998,1237.1405544999998,1237.1405544999998,1245.5997428749997,"velvet, suede, perfect, hair",1,[8.483523500000047],[8.483526500000153],,,,,,,,,,,,,,,,,,,,,,1221.0938770409998,1221.1066017079997,1221.1066017079997,1221.1066017079997,1226.0412327499998,1,[4.9456182919998355],[4.945621041999857],1235.7585907080002,1235.7635826659998,1237.1119909999998,1,[1.3525182910002513],[1.3525339580000946],,,,,,,p_9,001,2024-05-09_17h18.45.829,speech_rate,2023.2.3,None,2024-05-09 17h18.59.414442 -0700,
,Someday_87_condition-4x.wav,Someday__Someday__Maybe__Unabridged___File_039_of_116_0.wav,The reception area is a soothing soft grey Everything is plush and velvet The carpet looks like shiny grey silk and the sofa is a silvery suede that appears freshly brushed as though no one has ever sat on it There's a long reception desk behind which sit two of the most beautiful people I have ever seen also swathed in grey The perfect specimen male is reading a script and the perfect specimen female is on a headset talking to someone in a British accent,How does the narrator describe the reception area of Absolute Artists?,A. It's brightly colored,B. It's cold and uninviting,C. It's plush and soothing,D. It's chaotic and messy,C. It's plush and soothing,yes,7.12,,,,,,,,,,,,,0,25,25,25,0,0,0,0,,,,,,,,,,,,,,,,,,,,,,,,,,,,,,,,,,,,,,,,,,,,,,,,,,,,,,,,,,,,,,,,,,,,,,,,,,,,,,,,,,,,,,,,,,p_9,001,2024-05-09_17h18.45.829,speech_rate,2023.2.3,None,2024-05-09 17h18.59.414442 -0700,
,Someday_87_condition-4x.wav,Someday__Someday__Maybe__Unabridged___File_039_of_116_0.wav,The reception area is a soothing soft grey Everything is plush and velvet The carpet looks like shiny grey silk and the sofa is a silvery suede that appears freshly brushed as though no one has ever sat on it There's a long reception desk behind which sit two of the most beautiful people I have ever seen also swathed in grey The perfect specimen male is reading a script and the perfect specimen female is on a headset talking to someone in a British accent,How does the narrator describe the reception area of Absolute Artists?,A. It's brightly colored,B. It's cold and uninviting,C. It's plush and soothing,D. It's chaotic and messy,C. It's plush and soothing,yes,7.12,,,,,,,,,,,,,0,25,25,25,,,,,,,,,,,,,,,,,,,,,,,,,,,,,,,,,,,,,,,,,,,,,,,,,,,,,1245.6002429579999,1255.142882958,0,,,0,,,1,9.532570958000179,9.53257429200039,0,,,,,,,,,,,,,,,,,,,,,,,,,,,,,,p_9,001,2024-05-09_17h18.45.829,speech_rate,2023.2.3,None,2024-05-09 17h18.59.414442 -0700,
,Someday_4_condition-5x.wav,Someday__Someday__Maybe__Unabridged___File_005_of_116_3.wav,You told me you'd try if I let you I promised I'd make sure I take a deep breath and I bellow in my most diaphragmatically supported Shakespearean tone Dan come in Miraculously the left side of Dan's face appears through a crack in the door but it's not until he's confirmed my fully covered status and stepped all the way into the room leaning his oversized frame awkwardly against the corner bookshelf that I suddenly remember My hair,What does the narrator suddenly remember when Dan enters the room?,A. Her hair,B. A book,C. Her appointment,D. A phone call,A. Her hair,yes,5.986,,,,,,,,,,,,,0,26,26,26,0,0,0,0,0,0,0,0,1265.7135885409998,,,,,,,,,,,,,,,1255.8656148750001,1255.8815326246665,1255.877768333,1261.876156833,1261.8784034999999,1261.889608375,1262.1081682079998,1262.1081682079998,1264.37648825,1264.8937916249997,4.025,2.4623138330002803,1,[0.5264830409996648],[0.5264855409996017],,,,,,,1265.7021076249998,1265.7135885409998,1265.7135885409998,1271.8759756250001,"deep breath, come in, my hair",1,[6.170570249999855],[6.170573458000035],,,,,,,,,,,,,,,,,,,,,,1255.1434360829999,1255.150298125,1255.150298125,1255.150298125,1255.8654193329999,1,[0.7203465000002325],[0.7203518750002331],1264.894384958,1264.899669416,1265.7010249579998,1,[0.8059249590000945],[0.8059277499996824],,,,,,,p_9,001,2024-05-09_17h18.45.829,speech_rate,2023.2.3,None,2024-05-09 17h18.59.414442 -0700,
,Someday_4_condition-5x.wav,Someday__Someday__Maybe__Unabridged___File_005_of_116_3.wav,You told me you'd try if I let you I promised I'd make sure I take a deep breath and I bellow in my most diaphragmatically supported Shakespearean tone Dan come in Miraculously the left side of Dan's face appears through a crack in the door but it's not until he's confirmed my fully covered status and stepped all the way into the room leaning his oversized frame awkwardly against the corner bookshelf that I suddenly remember My hair,What does the narrator suddenly remember when Dan enters the room?,A. Her hair,B. A book,C. Her appointment,D. A phone call,A. Her hair,yes,5.986,,,,,,,,,,,,,0,26,26,26,0,0,0,0,,,,,,,,,,,,,,,,,,,,,,,,,,,,,,,,,,,,,,,,,,,,,,,,,,,,,,,,,,,,,,,,,,,,,,,,,,,,,,,,,,,,,,,,,,p_9,001,2024-05-09_17h18.45.829,speech_rate,2023.2.3,None,2024-05-09 17h18.59.414442 -0700,
,Someday_4_condition-5x.wav,Someday__Someday__Maybe__Unabridged___File_005_of_116_3.wav,You told me you'd try if I let you I promised I'd make sure I take a deep breath and I bellow in my most diaphragmatically supported Shakespearean tone Dan come in Miraculously the left side of Dan's face appears through a crack in the door but it's not until he's confirmed my fully covered status and stepped all the way into the room leaning his oversized frame awkwardly against the corner bookshelf that I suddenly remember My hair,What does the narrator suddenly remember when Dan enters the room?,A. Her hair,B. A book,C. Her appointment,D. A phone call,A. Her hair,yes,5.986,,,,,,,,,,,,,0,26,26,26,,,,,,,,,,,,,,,,,,,,,,,,,,,,,,,,,,,,,,,,,,,,,,,,,,,,,1271.876469333,1274.8286404579999,1,2.9433026250003422,2.9433052090003002,0,,,0,,,0,,,,,,,,,,,,,,,,,,,,,,,,,,,,,,p_9,001,2024-05-09_17h18.45.829,speech_rate,2023.2.3,None,2024-05-09 17h18.59.414442 -0700,
,Someday_96_condition-2x.wav,Someday__Someday__Maybe__Unabridged___File_042_of_116_0.wav,My point is about the competitive thing I've always naturally made everything a competition in a way so I already know I'm tough and it actually comes sort of easily to me And I'm not afraid to be hurt or rejected because I have naturally low self esteem anyway So I always expect the worst which is weird because I also have a vision for myself where I can totally picture succeeding well almost totally on a good day And I'm quick and I'm sure that whatever I don't know yet I can learn quickly because I'm quick which I know I just said because I'm quick Ha ha get it,How does the narrator feel about competition and their ability to succeed?,A. She is afraid of competition,B. She is quick to learn and not afraid of failure,C. She has low self-esteem and avoids competition,D. She believes in the concept of competition,B. She is quick to learn and not afraid of failure,yes,14.24,,,,,,,,,,,,,0,27,27,27,0,0,0,0,0,0,0,0,1294.4773044999997,,,,,,,,,,,,,,,1275.877251625,1275.8932049996668,1275.8963955,1290.1442231659998,1290.1464445000001,1290.157418541,1290.366115833,1290.366115833,1292.116446166,1292.7839978749998,9.575,1.934287709000273,1,[0.6768660410002667],[0.6768684160001612],,,,,,,1294.4493238750001,1294.4773044999997,1294.4773044999997,1319.213656333,"The narrator talks about their low self-esteem
and how they have big aspirations and how
they're quick (several times)",1,[24.760772459000236],[24.760775417000332],,,,,,,,,,,,,,,,,,,,,,1274.829191333,1274.8426480829999,1274.8426480829999,1274.8426480829999,1275.877053666,1,[1.046256957999958],[1.046259457999895],1292.78452375,1292.793418958,1294.448497416,1,[1.6629286669999601],[1.6629332920001616],,,,,,,p_9,001,2024-05-09_17h18.45.829,speech_rate,2023.2.3,None,2024-05-09 17h18.59.414442 -0700,
,Someday_96_condition-2x.wav,Someday__Someday__Maybe__Unabridged___File_042_of_116_0.wav,My point is about the competitive thing I've always naturally made everything a competition in a way so I already know I'm tough and it actually comes sort of easily to me And I'm not afraid to be hurt or rejected because I have naturally low self esteem anyway So I always expect the worst which is weird because I also have a vision for myself where I can totally picture succeeding well almost totally on a good day And I'm quick and I'm sure that whatever I don't know yet I can learn quickly because I'm quick which I know I just said because I'm quick Ha ha get it,How does the narrator feel about competition and their ability to succeed?,A. She is afraid of competition,B. She is quick to learn and not afraid of failure,C. She has low self-esteem and avoids competition,D. She believes in the concept of competition,B. She is quick to learn and not afraid of failure,yes,14.24,,,,,,,,,,,,,0,27,27,27,0,0,0,0,,,,,,,,,,,,,,,,,,,,,,,,,,,,,,,,,,,,,,,,,,,,,,,,,,,,,,,,,,,,,,,,,,,,,,,,,,,,,,,,,,,,,,,,,,p_9,001,2024-05-09_17h18.45.829,speech_rate,2023.2.3,None,2024-05-09 17h18.59.414442 -0700,
,Someday_96_condition-2x.wav,Someday__Someday__Maybe__Unabridged___File_042_of_116_0.wav,My point is about the competitive thing I've always naturally made everything a competition in a way so I already know I'm tough and it actually comes sort of easily to me And I'm not afraid to be hurt or rejected because I have naturally low self esteem anyway So I always expect the worst which is weird because I also have a vision for myself where I can totally picture succeeding well almost totally on a good day And I'm quick and I'm sure that whatever I don't know yet I can learn quickly because I'm quick which I know I just said because I'm quick Ha ha get it,How does the narrator feel about competition and their ability to succeed?,A. She is afraid of competition,B. She is quick to learn and not afraid of failure,C. She has low self-esteem and avoids competition,D. She believes in the concept of competition,B. She is quick to learn and not afraid of failure,yes,14.24,,,,,,,,,,,,,0,27,27,27,,,,,,,,,,,,,,,,,,,,,,,,,,,,,,,,,,,,,,,,,,,,,,,,,,,,,1319.2141378749998,1327.1405139160001,0,,,1,7.91546441599985,7.91546712499985,0,,,0,,,,,,,,,,,,,,,,,,,,,,,,,,,,,,p_9,001,2024-05-09_17h18.45.829,speech_rate,2023.2.3,None,2024-05-09 17h18.59.414442 -0700,
,Someday_113_condition-3x.wav,Someday__Someday__Maybe__Unabridged___File_050_of_116_0.wav,She lives I think I need a manager Why do you need a manager I thought you just got an agent I did but they aren't getting me any auditions If you have no auditions what's there to manage A manager would help me get auditions How could a manager do that when the agents can't Well managers have fewer people so they can focus just on you And why do you have an agent at all Why not just have a manager You have to have an agent They're the only ones allowed to negotiate contracts Agents are franchised managers aren't,Why does the narrator want to get a manager?,A. To help negotiate contracts,B. To get auditions,C. Because agents are expensive,D. To manage the finances,B. To get auditions,no,10.5075,,,,,,,,,,,,,0,28,28,28,,,,,,,,,1327.1474882080001,,,,,,,,,,,,,,,1328.8139487499998,1328.8294718746668,1328.8301630830001,1339.3472389999997,1339.3495296659999,1339.3603022910002,1339.621320666,1339.621320666,1340.8808422500001,1342.750592291,8.525,2.800645957999677,1,[1.8790089580002132],[1.8790115420001712],,,,,,,,,,,,,,,1342.7511055,1349.0586146659998,0,,,1,6.299086125000031,6.299088917000063,0,,,0,,,,,,,,,,1327.141133916,1327.1474882080001,1327.1474882080001,1327.1474882080001,1328.8137430000002,1,[1.6720595419997153],[1.6720622919997368],,,,,,,,,,,,,p_9,001,2024-05-09_17h18.45.829,speech_rate,2023.2.3,None,2024-05-09 17h18.59.414442 -0700,
,Someday_56_condition.wav,Someday__Someday__Maybe__Unabridged___File_027_of_116_4.wav,I'm not sure how to explain it to Everett in a way I think she'll understand What do I say Oh fine thanks Today was great but it doesn't take away my general fear that I'm not now nor will I ever be good enough Oh fine thanks There's a silence as we both sip our tea My whole family just went to see the Phantom of the Opera Everett says Have you seen it No I haven't Oh it's wonderful So magical There's a giant chandelier that appears right out of the sky,What are Everett and the narrator drinking while talking to each other?,A. Coffee,B. Wine,C. Tea,D. Beer,C. Tea,yes,29.31996875,,,,,,,,,,,,,0,29,29,29,0,0,0,0,0,0,0,0,1383.129310458,,,,,,,,,,,,,,,1350.115623791,1350.1473645833335,1350.146944,1379.4661610409999,1379.46997225,1379.4913402500001,1379.7005314580001,1379.7005314580001,1381.0816690409997,1381.6957905,10,1.5621805000000677,1,[0.6271185830000832],[0.6271211660000517],,,,,,,1383.117603708,1383.129310458,1383.129310458,1408.5519466659998,"The narrator doesn't tell everett how she truly feels,
and everett talks about her family going to the phantom
of the opera and how it has a wonderful chandelier",1,[25.430802708999636],[25.4308061669999],,,,,,,,,,,,,,,,,,,,,,1349.059194,1349.066759291,1349.066759291,1349.066759291,1350.115314708,1,[1.054125833999933],[1.0541286669999863],1381.696369625,1381.7011553749999,1383.116703875,1,[1.4197909589997835],[1.419793541999752],,,,,,,p_9,001,2024-05-09_17h18.45.829,speech_rate,2023.2.3,None,2024-05-09 17h18.59.414442 -0700,
,Someday_56_condition.wav,Someday__Someday__Maybe__Unabridged___File_027_of_116_4.wav,I'm not sure how to explain it to Everett in a way I think she'll understand What do I say Oh fine thanks Today was great but it doesn't take away my general fear that I'm not now nor will I ever be good enough Oh fine thanks There's a silence as we both sip our tea My whole family just went to see the Phantom of the Opera Everett says Have you seen it No I haven't Oh it's wonderful So magical There's a giant chandelier that appears right out of the sky,What are Everett and the narrator drinking while talking to each other?,A. Coffee,B. Wine,C. Tea,D. Beer,C. Tea,yes,29.31996875,,,,,,,,,,,,,0,29,29,29,0,0,0,0,,,,,,,,,,,,,,,,,,,,,,,,,,,,,,,,,,,,,,,,,,,,,,,,,,,,,,,,,,,,,,,,,,,,,,,,,,,,,,,,,,,,,,,,,,p_9,001,2024-05-09_17h18.45.829,speech_rate,2023.2.3,None,2024-05-09 17h18.59.414442 -0700,
,Someday_56_condition.wav,Someday__Someday__Maybe__Unabridged___File_027_of_116_4.wav,I'm not sure how to explain it to Everett in a way I think she'll understand What do I say Oh fine thanks Today was great but it doesn't take away my general fear that I'm not now nor will I ever be good enough Oh fine thanks There's a silence as we both sip our tea My whole family just went to see the Phantom of the Opera Everett says Have you seen it No I haven't Oh it's wonderful So magical There's a giant chandelier that appears right out of the sky,What are Everett and the narrator drinking while talking to each other?,A. Coffee,B. Wine,C. Tea,D. Beer,C. Tea,yes,29.31996875,,,,,,,,,,,,,0,29,29,29,,,,,,,,,,,,,,,,,,,,,,,,,,,,,,,,,,,,,,,,,,,,,,,,,,,,,1408.5524462499998,1413.4919437079998,0,,,0,,,1,4.931028750000223,4.931031291000181,0,,,,,,,,,,,,,,,,,,,,,,,,,,,,,,p_9,001,2024-05-09_17h18.45.829,speech_rate,2023.2.3,None,2024-05-09 17h18.59.414442 -0700,
,Someday_86_condition-5x.wav,Someday__Someday__Maybe__Unabridged___File_038_of_116_2.wav,We need a better mirror in Brooklyn I realize a proper full length one that doesn't require me to stand on the toilet to see my lower half Maybe this explains why I haven't gotten more jobs I've only seen either my upper or my lower self I haven't seen the whole thing all at once in a long time Maybe my upper lower unity is not what I thought it was Regardless I should have bought a new outfit for this meeting in a store with a full length mirror I need a full length mirror I need new clothes I need a longer skirt I should go back to Brooklyn and change,What realization does the narrator have about her need for a better mirror?,A. She needs a mirror in her bathroom,B. She should buy a full-length mirror,C. She should move to Brooklyn,D. She needs new boots,B. She should buy a full-length mirror,yes,5.832,,,,,,,,,,,,,0,30,30,30,0,0,0,0,0,0,0,0,1423.8813236249998,,,,,,,,,,,,,,,1414.573843833,1414.5891322076666,1414.5864257909998,1420.4186635410001,1420.423820291,1420.435026833,1420.6881612500001,1420.6881612500001,1422.684281416,1423.2196398749998,3.175,2.221912833999795,1,[0.5470926250000048],[0.5470950839999205],,,,,,,1423.8700626659997,1423.8813236249998,1423.8813236249998,1429.9108098749998,"whole time, near, close, change",1,[6.037550624999767],[6.037554708999778],,,,,,,,,,,,,,,,,,,,,,1413.492410791,1413.4992727079998,1413.4992727079998,1413.4992727079998,1414.5733959579998,1,[1.0794960829998672],[1.0794987079998464],1423.220195166,1423.22508475,1423.8693723329998,1,[0.6486303330002556],[0.6486333330003617],,,,,,,p_9,001,2024-05-09_17h18.45.829,speech_rate,2023.2.3,None,2024-05-09 17h18.59.414442 -0700,
,Someday_86_condition-5x.wav,Someday__Someday__Maybe__Unabridged___File_038_of_116_2.wav,We need a better mirror in Brooklyn I realize a proper full length one that doesn't require me to stand on the toilet to see my lower half Maybe this explains why I haven't gotten more jobs I've only seen either my upper or my lower self I haven't seen the whole thing all at once in a long time Maybe my upper lower unity is not what I thought it was Regardless I should have bought a new outfit for this meeting in a store with a full length mirror I need a full length mirror I need new clothes I need a longer skirt I should go back to Brooklyn and change,What realization does the narrator have about her need for a better mirror?,A. She needs a mirror in her bathroom,B. She should buy a full-length mirror,C. She should move to Brooklyn,D. She needs new boots,B. She should buy a full-length mirror,yes,5.832,,,,,,,,,,,,,0,30,30,30,0,0,0,0,,,,,,,,,,,,,,,,,,,,,,,,,,,,,,,,,,,,,,,,,,,,,,,,,,,,,,,,,,,,,,,,,,,,,,,,,,,,,,,,,,,,,,,,,,p_9,001,2024-05-09_17h18.45.829,speech_rate,2023.2.3,None,2024-05-09 17h18.59.414442 -0700,
,Someday_86_condition-5x.wav,Someday__Someday__Maybe__Unabridged___File_038_of_116_2.wav,We need a better mirror in Brooklyn I realize a proper full length one that doesn't require me to stand on the toilet to see my lower half Maybe this explains why I haven't gotten more jobs I've only seen either my upper or my lower self I haven't seen the whole thing all at once in a long time Maybe my upper lower unity is not what I thought it was Regardless I should have bought a new outfit for this meeting in a store with a full length mirror I need a full length mirror I need new clothes I need a longer skirt I should go back to Brooklyn and change,What realization does the narrator have about her need for a better mirror?,A. She needs a mirror in her bathroom,B. She should buy a full-length mirror,C. She should move to Brooklyn,D. She needs new boots,B. She should buy a full-length mirror,yes,5.832,,,,,,,,,,,,,0,30,30,30,,,,,,,,,,,,,,,,,,,,,,,,,,,,,,,,,,,,,,,,,,,,,,,,,,,,,1429.9113081249998,1445.704061,0,,,0,,,1,15.782249707999654,15.782252582999718,0,,,,,,,,,,,,,,,,,,,,,,,,,,,,,,p_9,001,2024-05-09_17h18.45.829,speech_rate,2023.2.3,None,2024-05-09 17h18.59.414442 -0700,
,Someday_61_condition-4x.wav,Someday__Someday__Maybe__Unabridged___File_030_of_116_0.wav,He said we all we all is not asking you out but why leave a message just to we all me I think he's asking me out in his own way We all means I asked for your number because I think you're cute but I'm seeing someone So I'm trying to pretend to myself that I just asked for your number to be friends with you And I'm asking if you want to have a drink sometime with me and my girlfriend which will never But it helps me feel like less of a shithead for asking for your number in the first place You've been we all'd my friend,What does the term "we all" imply in the context given by the narrator?,A. The person is directly asking the narrator out on a date,B. The person left a message to genuinely make a new friend,C. The person is extending an invitation for a group outing,D. The person might be expressing interest under the guise of friendship despite being in a relationship,D. The person might be expressing interest under the guise of friendship despite being in a relationship,yes,7.6075,,,,,,,,,,,,,0,31,31,31,0,0,0,0,0,0,0,0,1461.336953291,,,,,,,,,,,,,,,1447.191034291,1447.2033763326665,1447.204394458,1454.8207270409998,1454.823526833,1454.8347344999997,1455.0428643750001,1455.0428643750001,1459.863778291,1460.4383600410001,4.5,5.002423291000014,1,[0.5836346250002862],[0.583637125000223],,,,,,,1461.309524833,1461.336953291,1461.336953291,1469.005696625,"we all, girlfriend",1,[7.692959083000005],[7.6929623750002065],,,,,,,,,,,,,,,,,,,,,,1445.7046782500001,1445.7125177499997,1445.7125177499997,1445.7125177499997,1447.1907543329999,1,[1.484131416999844],[1.4841365000002043],1460.438917416,1460.4439738329997,1461.3088282909998,1,[0.8693568329999835],[0.8693593329999203],,,,,,,p_9,001,2024-05-09_17h18.45.829,speech_rate,2023.2.3,None,2024-05-09 17h18.59.414442 -0700,
,Someday_61_condition-4x.wav,Someday__Someday__Maybe__Unabridged___File_030_of_116_0.wav,He said we all we all is not asking you out but why leave a message just to we all me I think he's asking me out in his own way We all means I asked for your number because I think you're cute but I'm seeing someone So I'm trying to pretend to myself that I just asked for your number to be friends with you And I'm asking if you want to have a drink sometime with me and my girlfriend which will never But it helps me feel like less of a shithead for asking for your number in the first place You've been we all'd my friend,What does the term "we all" imply in the context given by the narrator?,A. The person is directly asking the narrator out on a date,B. The person left a message to genuinely make a new friend,C. The person is extending an invitation for a group outing,D. The person might be expressing interest under the guise of friendship despite being in a relationship,D. The person might be expressing interest under the guise of friendship despite being in a relationship,yes,7.6075,,,,,,,,,,,,,0,31,31,31,0,0,0,0,,,,,,,,,,,,,,,,,,,,,,,,,,,,,,,,,,,,,,,,,,,,,,,,,,,,,,,,,,,,,,,,,,,,,,,,,,,,,,,,,,,,,,,,,,p_9,001,2024-05-09_17h18.45.829,speech_rate,2023.2.3,None,2024-05-09 17h18.59.414442 -0700,
,Someday_61_condition-4x.wav,Someday__Someday__Maybe__Unabridged___File_030_of_116_0.wav,He said we all we all is not asking you out but why leave a message just to we all me I think he's asking me out in his own way We all means I asked for your number because I think you're cute but I'm seeing someone So I'm trying to pretend to myself that I just asked for your number to be friends with you And I'm asking if you want to have a drink sometime with me and my girlfriend which will never But it helps me feel like less of a shithead for asking for your number in the first place You've been we all'd my friend,What does the term "we all" imply in the context given by the narrator?,A. The person is directly asking the narrator out on a date,B. The person left a message to genuinely make a new friend,C. The person is extending an invitation for a group outing,D. The person might be expressing interest under the guise of friendship despite being in a relationship,D. The person might be expressing interest under the guise of friendship despite being in a relationship,yes,7.6075,,,,,,,,,,,,,0,31,31,31,,,,,,,,,,,,,,,,,,,,,,,,,,,,,,,,,,,,,,,,,,,,,,,,,,,,,1469.0061850829998,1484.312872041,0,,,0,,,0,,,1,15.29304191700021,15.293044458000168,,,,,,,,,,,,,,,,,,,,,,,,,,,,p_9,001,2024-05-09_17h18.45.829,speech_rate,2023.2.3,None,2024-05-09 17h18.59.414442 -0700,
,Someday_119_condition-3x.wav,Someday__Someday__Maybe__Unabridged___File_053_of_116_1.wav,But when did you start doing this I didn't see any of it in the fridge Yeah no that's the best part You don't have to refrigerate it It comes in a box It's freeze dried in a package and you just take it out and soak it You soak it It sounds weird I know but it's actually very convenient because you can take it anywhere you know on the go Why can't you just eat actual healthy food the kind that doesn't require soaking Well obviously because I can't be trusted to control myself This teaches you portion control,Why does the narrator prefer soaked food?,A. Because it helps with portion control,B. Because it tastes good,C. Becauseit is cheap,D. Because the friend likes it,A. Because it helps with portion control,no,10.75875,,,,,,,,,,,,,0,32,32,32,,,,,,,,,1484.3199921659998,,,,,,,,,,,,,,,1485.2306694999997,1485.2461811246665,1485.2468842909998,1495.9958326249998,1496.008599875,1496.0197829159997,1496.238578083,1496.238578083,1498.488685583,1498.9858007909997,9.0,2.4405881659999977,1,[0.5101575829999092],[0.510160249999899],,,,,,,,,,,,,,,1498.986279458,1502.7173520410001,1,3.7224016250002023,3.7224045840002873,0,,,0,,,0,,,,,,,,,,1484.313354541,1484.3199921659998,1484.3199921659998,1484.3199921659998,1485.2304921659997,1,[0.915616250000312],[0.9156188750002912],,,,,,,,,,,,,p_9,001,2024-05-09_17h18.45.829,speech_rate,2023.2.3,None,2024-05-09 17h18.59.414442 -0700,
,Someday_117_condition-3x.wav,Someday__Someday__Maybe__Unabridged___File_052_of_116_1.wav,Maybe bagels are my problem Although one bagel doesn't seem like a lot of food I decide I will finish the bagel but not eat anything the rest of the day Except maybe a salad for dinner or soup No soup has hidden stuff in it Yes I'm fairly certain soup is another food that seems innocent but is actually fattening Chicken broth that only has like seven calories Can I get chicken broth at the deli Where can I get chicken broth You don't need to change anything,What conclusion does the narrator reach about soup?,A. Soup is always low in calories,B. Soup is a hidden source of calories,C. Soup is the healthiest food option,D. Soup is not a good choice for dinner,B. Soup is a hidden source of calories,no,10.17,,,,,,,,,,,,,0,33,33,33,,,,,,,,,1502.724433375,,,,,,,,,,,,,,,1504.257736,1504.2729595416665,1504.2737485409998,1514.43960775,1514.445008583,1514.4562568329998,1514.6598422910001,1514.6598422910001,1516.374631958,1517.792010833,7.958333333333333,1.8938550000002579,1,[1.4265449580002496],[1.426547957999901],,,,,,,,,,,,,,,1517.792493333,1524.7111775829999,0,,,1,6.909263667000232,6.909266624999873,0,,,0,,,,,,,,,,1502.7179552909997,1502.724433375,1502.724433375,1502.724433375,1504.2574731250002,1,[1.5389278339998782],[1.5389309590000266],,,,,,,,,,,,,p_9,001,2024-05-09_17h18.45.829,speech_rate,2023.2.3,None,2024-05-09 17h18.59.414442 -0700,
,Someday_9_condition-3x.wav,Someday__Someday__Maybe__Unabridged___File_008_of_116_1.wav,For the Stevie Nicks fan club Jane seriously say something helpful She tilted her head studying me carefully Honestly Franny all I can think of to say is you look like you work at a really great bakery in Maine I have class tonight after my audition so today I go for young mom meets acting class neutral black sweater black tights short black wool skirt and my Doc Martin Oxford lace up shoes Not super mom ish but practical for walking,What does Jane say the narrator looks like?,A. Like she works at a bakery,B. Like she is a movie star,C. Like she is a student at Oxford,D. Like she is a mom,A. Like she works at a bakery,yes,11.27625,,,,,,,,,,,,,0,34,34,34,0,0,0,0,0,0,0,0,1541.043850166,,,,,,,,,,,,,,,1525.708806875,1525.7241727076664,1525.725400625,1536.9992029999999,1537.0022557080001,1537.0240696659998,1537.227944708,1537.227944708,1539.012914,1539.560029583,8.941666666666666,1.9650162500001898,1,[0.5558339580002212],[0.5558364170001369],,,,,,,1541.032692958,1541.043850166,1541.043850166,1569.7356906659998,"After her friend tells the narrator that she looks
like she works at a bakery in Maine, she decided
to go for the casual mom look after class pre audition",1,[28.69961795800009],[28.699621249999836],,,,,,,,,,,,,,,,,,,,,,1524.711760791,1524.7241773329997,1524.7241773329997,1524.7241773329997,1525.7085242499998,1,[0.9949401250000847],[0.9949428749996514],1539.5605395829998,1539.5654223749998,1541.0318293750001,1,[1.4705377499999486],[1.4705406250000124],,,,,,,p_9,001,2024-05-09_17h18.45.829,speech_rate,2023.2.3,None,2024-05-09 17h18.59.414442 -0700,
,Someday_9_condition-3x.wav,Someday__Someday__Maybe__Unabridged___File_008_of_116_1.wav,For the Stevie Nicks fan club Jane seriously say something helpful She tilted her head studying me carefully Honestly Franny all I can think of to say is you look like you work at a really great bakery in Maine I have class tonight after my audition so today I go for young mom meets acting class neutral black sweater black tights short black wool skirt and my Doc Martin Oxford lace up shoes Not super mom ish but practical for walking,What does Jane say the narrator looks like?,A. Like she works at a bakery,B. Like she is a movie star,C. Like she is a student at Oxford,D. Like she is a mom,A. Like she works at a bakery,yes,11.27625,,,,,,,,,,,,,0,34,34,34,0,0,0,0,,,,,,,,,,,,,,,,,,,,,,,,,,,,,,,,,,,,,,,,,,,,,,,,,,,,,,,,,,,,,,,,,,,,,,,,,,,,,,,,,,,,,,,,,,p_9,001,2024-05-09_17h18.45.829,speech_rate,2023.2.3,None,2024-05-09 17h18.59.414442 -0700,
,Someday_9_condition-3x.wav,Someday__Someday__Maybe__Unabridged___File_008_of_116_1.wav,For the Stevie Nicks fan club Jane seriously say something helpful She tilted her head studying me carefully Honestly Franny all I can think of to say is you look like you work at a really great bakery in Maine I have class tonight after my audition so today I go for young mom meets acting class neutral black sweater black tights short black wool skirt and my Doc Martin Oxford lace up shoes Not super mom ish but practical for walking,What does Jane say the narrator looks like?,A. Like she works at a bakery,B. Like she is a movie star,C. Like she is a student at Oxford,D. Like she is a mom,A. Like she works at a bakery,yes,11.27625,,,,,,,,,,,,,0,34,34,34,,,,,,,,,,,,,,,,,,,,,,,,,,,,,,,,,,,,,,,,,,,,,,,,,,,,,1569.7361755409997,1575.3450002499999,1,5.598405625000396,5.598408417000428,0,,,0,,,0,,,,,,,,,,,,,,,,,,,,,,,,,,,,,,p_9,001,2024-05-09_17h18.45.829,speech_rate,2023.2.3,None,2024-05-09 17h18.59.414442 -0700,
