index,wav_file,old_name,segment_text,question,C1,C2,C3,C4,C_correct,summary,duration,training.thisRepN,training.thisTrialN,training.thisN,training.thisIndex,experiment.thisRepN,experiment.thisTrialN,experiment.thisN,experiment.thisIndex,thisRow.t,notes,Instructions.started,Instructions.stopped,Start_Segment_Train.started,Play_train.started,Trial_counter_train.started,text_5.started,Start_Segment_Train.stopped,Play_train.numClicks,Play_train.timesOn,Play_train.timesOff,Training_Segment.started,Experimen_audio.started,polygon.started,polygon.stopped,Training_Segment.stopped,Summary.started,textbox.started,summary_done.started,Summary.stopped,textbox.text,summary_done.numClicks,summary_done.timesOn,summary_done.timesOff,Start_Exp.started,Start_exp.started,Start.started,Start_Exp.stopped,Start.numClicks,Start.timesOn,Start.timesOff,Start_Segment.started,Play.started,Trial_counter.started,text_6.started,Start_Segment.stopped,Play.numClicks,Play.timesOn,Play.timesOff,Thanks.started,text_7.started,text_7.stopped,Thanks.stopped,participant,session,date,expName,psychopyVersion,frameRate,expStart,
1,Someday_trial_condition.wav,Someday__Someday__Maybe__Unabridged___File_069_of_116_3.wav,It's a gut feeling You can't nickname him He's a real person not a joke person You don't have to tell me Only a real person would try to shake hands with my best friend's foot Jane you're not explaining it right It was very romantic And thankfully our steaming bowl of bright yellow melted cheese with flecks of green chilies arrives Listen she says dipping a chip into the creamy depths You're the one with the brand new personality I'm still the same old Jane,"What does the narrator have, according to Jane?",A) A new recipe for dipping sauce,B) A new personality,C) A new restaurant suggestion,D) A new pair of shoes,B) A new personality,yes,30,0,0,0,0,,,,,58.537603124999805,,0.011578874999031541,58.51172129199949,58.52145383300012,58.537603124999805,58.537603124999805,58.537603124999805,60.45184212499953,1,[1.9217525420008315],[1.9217551250003453],60.45221762499932,60.50146708299944,60.496754957999656,90.52923337500033,90.48524404199998,90.50723912499961,90.52923337500033,90.52923337500033,127.17924237499938,franny went on a date with someone and she is telling her friend about it. jane. and the man shook his foot with her and franny thought it was romantic.,1,[36.65887970800031],[36.65888283300046],,,,,,,,,,,,,,,,,,,,p_3,001,2024-03-28_13h09.40.926,speech_rate,2023.2.3,None,2024-03-28 13h11.49.309490 -0700,
2,Someday_trial_condition-4x.wav,Someday__Someday__Maybe__Unabridged___File_103_of_116_1.wav,Isn't halfway where two people usually meet Well in general maybe But tonight this is sort of a big deal for me It's my night I'm not sure you you don't think I get it Well no I mean how could you I'm having trouble making sense of this conversation James is speaking with authority but there's something wrong Something feels so wrong somehow I don't care about waving and smiling and having my picture taken with him,"How does James speak, according to the narrator?",A) With compassion,B) With grief,C) With hesitation,D) With authority,D) With authority,yes,7.5,0,1,1,1,,,,,127.18999712500045,,,,127.17972187499981,127.18999712500045,127.18999712500045,127.18999712500045,128.7646256249991,1,[1.5812894999999116],[1.5812920420012233],128.76480512499984,128.78088370866706,128.7781387920004,136.29384754199964,136.27400645799935,136.2851796670002,136.29384754199964,136.29384754199964,151.84641199999896,something feels so wrong i want to do it but i cannot,1,[15.559885959000894],[15.559889125001064],,,,,,,,,,,,,,,,,,,,p_3,001,2024-03-28_13h09.40.926,speech_rate,2023.2.3,None,2024-03-28 13h11.49.309490 -0700,
,Someday_142_condition-3-5x.wav,Someday__Someday__Maybe__Unabridged___File_088_of_116_2.wav,"Metro North is on strike. So I can't take the train I have no wallet. No driver's license. I can't pick up the rental car Two nights ago on the way home from James's I arrived at our front door Just as our downstairs neighbor was leaving and Dan and Jane were home with the door to our place already open So it wasn't until I went to get bagels the next morning that I realized in my rush to leave I forgot my purse at James's apartment. I left him a message, but he must have already taken off for Los Angeles",Where did the narrator forget her purse?,A. In the subway,B. In James's apartment,C. In the acting school,D. In the cab,B. In James's apartment,no,8.51471875,,,,,0,0,0,0,153.45527358300023,,,,,,,,,,,,198.1530435829991,198.1689276246673,198.16802599999937,206.677300207999,206.69493237499955,206.70615700000053,206.71499075000065,206.71499075000065,222.76751612499902,she forgot her wallet in james apartment but he went to los angeles,1,[16.05998179100061],[16.05998533300044],151.8466480419993,151.8549669999993,151.8549669999993,153.37775362499997,1,[1.530322583999805],[1.5303271669999958],153.44409991700013,153.45527358300023,153.45527358300023,153.45527358300023,198.15266970799894,1,[44.705266958999346],[44.705269583999325],,,,,p_3,001,2024-03-28_13h09.40.926,speech_rate,2023.2.3,None,2024-03-28 13h11.49.309490 -0700,
,Someday_20_condition.wav,Someday__Someday__Maybe__Unabridged___File_012_of_116_1.wav,Upstairs the waiting room is crowded which means there must be a few different casting calls There are boys and girls near the age of the elevator twins a couple of men in their 50s both in suit and tie and several girls who remind me of me but a better more put together me the me who would play me in the TV movie of the fictional life of the real me I sign in Name time arrived time scheduled agency social security number,What observation does the narrator make about the individuals in the waiting room?,A. They are all likely there for the same casting call,B. They are unorganized and scattered,"C. They appear to be different versions of the narrator, better and more composed",D. They are unrelated to the narrator's field of work,"C. They appear to be different versions of the narrator, better and more composed",no,27.41,,,,,0,1,1,1,222.77585912500035,,,,,,,,,,,,223.4806521669998,223.51144691633323,223.51262449999922,250.92978245799895,250.93108737500006,250.9533535419996,250.9623049999991,250.9623049999991,278.6878272499998,people in the waiting room. they are like "me" franny but the better version. she signs in and gives her age and social security number,1,[27.733087624999825],[27.733090666000862],,,,,,,,222.76809908299947,222.77585912500035,222.77585912500035,222.77585912500035,223.4799220829991,1,[0.7095665420001751],[0.7095743749996473],,,,,p_3,001,2024-03-28_13h09.40.926,speech_rate,2023.2.3,None,2024-03-28 13h11.49.309490 -0700,
,Someday_91_condition-4x.wav,Someday__Someday__Maybe__Unabridged___File_040_of_116_0.wav,Please go ahead and begin your monologue whenever you're ready We can chat afterwards Take your time His words are encouraging but his face is neutral at best And when there are two people in a room and one of them is there purely to see the other person do something the notion that that person could actually take their time seems ridiculous But I try I try to take a deep breath but the air gets sort of stuck and doesn't go all the way down to my lungs I need a minute to calm down but I can't possibly take it,What is the narrator's reaction to the suggestion to take her time?,A. She feels comforted,B. She finds it ridiculous,C. She rejects the offer,D. She chats with the agent first,B. She finds it ridiculous,yes,7.1475,,,,,0,2,2,2,278.69547158299974,,,,,,,,,,,,279.80622462499923,279.82226366666714,279.8194752500003,286.98158287499973,286.9828545830005,286.9936171669997,287.0020503329997,287.0020503329997,301.20502133300033,the air comes out of my lungs but i cannot breathe,1,[14.210017915998833],[14.210021749999214],,,,,,,,278.6881568329991,278.69547158299974,278.69547158299974,278.69547158299974,279.8060490000007,1,[1.1174517500003276],[1.1174542919998203],,,,,p_3,001,2024-03-28_13h09.40.926,speech_rate,2023.2.3,None,2024-03-28 13h11.49.309490 -0700,
,Someday_33_condition-2-5x.wav,Someday__Someday__Maybe__Unabridged___File_018_of_116_2.wav,Well I wouldn't say I'd be amazing in it although thanks for saying so I think I'd just be okay in it I mean it is sort of right in my wheelhouse but I think you'd actually be great in it I'm serious I mean I could do it I guess and I probably would do it if they asked but I think my problem with it isn't the play itself but the guy who's in it now What's his name Anyway it doesn't matter I just think he's not really acting so much as just smoldering or something up there and I'm like buddy you can't just play every scene sexy I mean that's not an active choice,What issue does the narrator have with the actor currently in the play?,A. She thinks he's too active,B. She believes he's too serious,C. She thinks he's smoldering too much,D. She has no issue with him,C. She thinks he's smoldering too much,no,13.365625,,,,,0,3,3,3,301.21338900000046,,,,,,,,,,,,301.97236662499927,301.98845729166555,301.9929756250003,315.36681020799915,315.36822008299896,315.3794442920007,315.38827887499974,315.38827887499974,331.2421927920004,you cant just play every scene sexy that is not an active choice. smoldering. ,1,[15.861307125000167],[15.861311541999385],,,,,,,,301.205356208,301.21338900000046,301.21338900000046,301.21338900000046,301.97219020800003,1,[0.7652736250001908],[0.7652761249992182],,,,,p_3,001,2024-03-28_13h09.40.926,speech_rate,2023.2.3,None,2024-03-28 13h11.49.309490 -0700,
,Someday_139_condition-2-5x.wav,Someday__Someday__Maybe__Unabridged___File_081_of_116_1.wav,"Sorry, you guys says Dan I suck. I don't know how actors do it. I want to help Can I just read this next scene to myself first before we do it out loud? Of course I say to him generously then I turn to Jane and roll my eyes these method actors Here you go. Mr. James Dean sir says Jane handing him a single sheet of paper. It's just the one page What a drama queen he is don't quit your day job Danny Dan pours over the single sheet holding it tightly on either side.",What does the narrator do when she turns to Jane?,A. She rolls her eyes,B. She smiles,C. She winks,D. She nods,A. She rolls her eyes,no,13.749,,,,,0,4,4,4,331.2516447500002,,,,,,,,,,,,332.50763820800057,332.54033691633276,332.52959570799976,346.2850990419993,346.302836249999,346.3247991249991,346.33399174999977,346.33399174999977,362.92526333299975,dont be such a drama queen. dan pulls it tight on either side,1,[16.599063624998962],[16.59906674999911],,,,,,,,331.2425279170002,331.2516447500002,331.2516447500002,331.2516447500002,332.50745237499905,1,[1.2624691250002797],[1.2624719579998782],,,,,p_3,001,2024-03-28_13h09.40.926,speech_rate,2023.2.3,None,2024-03-28 13h11.49.309490 -0700,
,Someday_65_condition-3x.wav,Someday__Someday__Maybe__Unabridged___File_032_of_116_0.wav,From the minute I walk into the wardrobe fitting in a trailer near mine I'm confused There are two giant rolling racks one full of tan trousers one stuffed with 30 or 40 identical blue shirts Oh Are there are there more people coming I ask a harried looking woman nearby She looks at me as though I've said something strange what oh the racks No those are all for you But aren't these all the same pants I say laughing a little,What does the narrator find confusing in the wardrobe fitting?,A. The lack of clothing options,B. The number of people there,C. The presence of a harried woman,D. The identical blue shirts and tan trousers,D. The identical blue shirts and tan trousers,yes,10.53375,,,,,0,5,5,5,362.9350340830006,,,,,,,,,,,,364.3239252500007,364.3395642496673,364.3406727500005,374.895902667,374.8754012499994,374.8866312499995,374.895902667,374.895902667,393.9937995420005,fashion person comes with the racks. looks at some pants and laughs a little ,1,[19.105768749999697],[19.10577183299938],,,,,,,,362.9256172080004,362.9350340830006,362.9350340830006,362.9350340830006,364.32372362500064,1,[1.3976532919987221],[1.3976558340000338],,,,,p_3,001,2024-03-28_13h09.40.926,speech_rate,2023.2.3,None,2024-03-28 13h11.49.309490 -0700,
,Someday_39_condition-3-5x.wav,Someday__Someday__Maybe__Unabridged___File_021_of_116_1.wav,People who are admired for holding it together are not people who are about to get agents They're people who are recovering from cancer or undergoing a murder trial And I dropped a section I add hoping he'll say he didn't notice Yeah I know but I only know because I'm obsessed with that guy's work No one will dock you for that It's not exactly a glowing review but he doesn't seem totally horrified Still he's avoiding the thing I most want to know But when I fell I mean how bad was it,What does the narrator hope the person they are talking to will say?,A. That he didn't notice the mistake,B. That he noticed the dropped section,C. That he wants to be an agent,D. That he's obsessed with the narrator's work,A. That he didn't notice the mistake,no,9.134375,,,,,0,6,6,6,394.00256850000005,,,,,,,,,,,,394.6934527079993,394.70902349966696,394.7075364169996,403.8380219999999,403.8562407919999,403.87800416699974,403.88916804200016,403.88916804200016,418.21195516700027,not as bad as someone with cancer. when i fell how bad was it ,1,[14.330496000000494],[14.330498958001044],,,,,,,,393.9941195829997,394.00256850000005,394.00256850000005,394.00256850000005,394.69327941700067,1,[0.6968590420001419],[0.6968617920010729],,,,,p_3,001,2024-03-28_13h09.40.926,speech_rate,2023.2.3,None,2024-03-28 13h11.49.309490 -0700,
,Someday_103_condition.wav,Someday__Someday__Maybe__Unabridged___File_045_of_116_1.wav,So I let it soften back down to the small giggle and finally exhausted but happy I let out a little sigh that's interrupted by an almost involuntary hiccup like I gulp down too much champagne all at once It's a blur from that point on a series of snapshots that flashed before me The woman in the back mouthing see to the disgruntled man who nods and shrugs at her in a way That says who knew and the man in glasses asking me to wait in the waiting room,What happens after the narrator finishes their audition?,A. She is congratulated by the casting director,B. She is asked to perform the laugh again,C. She is asked to wait in the waiting room,D. She is immediately given the role,C. She is asked to wait in the waiting room,no,28.64,,,,,0,7,7,7,418.2212109579996,,,,,,,,,,,,419.2788782919997,419.3115702083328,419.30970533300024,447.95757208299983,447.95918062499914,447.9807850420002,447.990130582999,447.990130582999,466.2983252920003,the man in glasses asking her to wait in the waiting room. champagne. ,1,[18.316141916999186],[18.316145041999334],,,,,,,,418.21227270800046,418.2212109579996,418.2212109579996,418.2212109579996,419.2787026669994,1,[1.0639592080005968],[1.0639618750010413],,,,,p_3,001,2024-03-28_13h09.40.926,speech_rate,2023.2.3,None,2024-03-28 13h11.49.309490 -0700,
,Someday_2_condition-3x.wav,Someday__Someday__Maybe__Unabridged___File_004_of_116_1.wav,Successful actresses are disciplined people who wake up early to focus on their craft I told myself even ones who still make their living as waitresses like me I started leaving the alarm clock on the landing between Jane's room and mine so I'd have to actually get out of bed in order to turn it off instead of hitting snooze over and over like I normally do I also resolved to quit smoking again to stop losing purses wallets and umbrellas and to not eat any more cheese puffs not even on special occasions,What resolution does the narrator make about her lifestyle to become a successful actress?,A. To wake up early and focus on her craft,B. To quit smoking and stop losing personal items,"C. To stop eating cheese puffs, even on special occasions",D. All of the above,D. All of the above,no,11.38125,,,,,0,8,8,8,466.30611512500036,,,,,,,,,,,,467.81283908300065,467.8254882916665,467.8296514579997,479.23123466700054,479.21191312500014,479.22235979200013,479.23123466700054,479.23123466700054,501.2167125420001,will not each cheese puffs even in special occasions. resolve to be a better person.,1,[21.992953000000853],[21.992955916000938],,,,,,,,466.29863979199945,466.30611512500036,466.30611512500036,466.30611512500036,467.81259924999904,1,[1.5130504999997356],[1.5130656670007738],,,,,p_3,001,2024-03-28_13h09.40.926,speech_rate,2023.2.3,None,2024-03-28 13h11.49.309490 -0700,
,Someday_52_condition-4x.wav,Someday__Someday__Maybe__Unabridged___File_026_of_116_0.wav,She takes a deep breath and narrows her eyes and says slowly and deliberately I won't until I get something on my favorite show Law and Order You've never been on Law and Order I say surprised but you're perfect for it I know I'm even Irish and Italian Who knows cops and criminals better So why You haven't auditioned for them or People known for being on the most ridiculed talking animals show of the last decade sometimes have a hard time being taken seriously,What show does Dina want to get a role on?,A. "Law and Order",B. "There's Pierre",C. The talking animals show,D. A show about Irish and Italian people,A. "Law and Order",no,7.215,,,,,0,9,9,9,501.2263770419995,,,,,,,,,,,,501.9337086249998,501.9497057496667,501.9469835830005,509.160936667,509.1671105000005,509.17849470799956,509.18936866699914,509.18936866699914,605.9897603329991,irmak came to talk to me i dont remember!,1,[96.80770108399884],[96.80770445899907],,,,,,,,501.2170290419999,501.2263770419995,501.2263770419995,501.2263770419995,501.9335315829994,1,[0.7137711249997665],[0.7137738330002321],,,,,p_3,001,2024-03-28_13h09.40.926,speech_rate,2023.2.3,None,2024-03-28 13h11.49.309490 -0700,
,Someday_8_condition-4x.wav,Someday__Someday__Maybe__Unabridged___File_007_of_116_1.wav,And one accomplishment a year wasn't exactly what I had in mind Still wedged halfway beneath the bed it takes all my strength to push a barely used roller blade out of the way At this point I'm just sweeping my arm back and forth making the same movement under my bed as I would if making a snow angel only the accumulated junk is a lot harder to move I give up for a moment resting my cheek against the cool wooden floor with a sigh Do you have any idea how few actors make it people always say,What does the narrator push out of the way?,A. Roller blades,B. Snow angel drawings,C. Junk that's hard to move,D. Cool wooden floor,A. Roller blades,no,7.295,,,,,0,10,10,10,605.9993549999999,,,,,,,,,,,,607.2884837080001,607.303855958666,607.3013736249995,614.5894122499994,614.6016004579997,614.611890958,614.6210727500002,614.6210727500002,621.7066259999992,people say,1,[7.093320542000583],[7.093323667000732],,,,,,,,605.9900856669992,605.9993549999999,605.9993549999999,605.9993549999999,607.2882407920006,1,[1.295456624999133],[1.2954595829996833],,,,,p_3,001,2024-03-28_13h09.40.926,speech_rate,2023.2.3,None,2024-03-28 13h11.49.309490 -0700,
,Someday_12_condition-3-5x.wav,Someday__Someday__Maybe__Unabridged___File_008_of_116_4.wav,Of course the wedding's not until June but if you wanna stay at the Sands by the shore she said to book early Okay thanks Franny I'm worried about you Why Well from my initial calculations this new telephone identification system could save you upwards of 20 to 25 seconds per day I'm concerned about how you'll adjust to all the new free time Har har Also one of my students says there's a show called Friends Apparently it's a popular one Maybe you should try to apply for that,What does the narrator's father joke about regarding caller ID?,A. The invention of the telephone,B. The inconvenience of caller ID,C. The potential time saved with caller ID,D. The popularity of caller ID,C. The potential time saved with caller ID,no,9.2875,,,,,0,11,11,11,621.7167365419991,,,,,,,,,,,,624.2576398750007,624.273609666667,624.2722087919992,633.568225125,633.5699948750007,633.5812480000004,633.5903395829991,633.5903395829991,649.5085078329994,maybe you should apply to be on the tv show friends i hear its popular,1,[15.925927416999912],[15.92593045799913],,,,,,,,621.7069422080003,621.7167365419991,621.7167365419991,621.7167365419991,624.2574573749989,1,[2.550042000000758],[2.550044790999891],,,,,p_3,001,2024-03-28_13h09.40.926,speech_rate,2023.2.3,None,2024-03-28 13h11.49.309490 -0700,
,Someday_69_condition-2x.wav,Someday__Someday__Maybe__Unabridged___File_033_of_116_3.wav,Mmm let me see Carol puts on the glasses that hang on a chain around her neck and brings her face just inches from mine I hold very still as if I'm being examined in a doctor's office Well you have some freckles it's true I don't think they're distracting though I don't see them as a problem but I can even out your skin tone if that's what concerns you Carol sighs I don't think she likes me Okay great whatever you think thanks Want a magazine,What does Carol suggest to the main character regarding her freckles?,A. Cover them up with makeup,B. Embrace them as unique,C. Remove them with a cream,D. Get freckle tattoos,A. Cover them up with makeup,no,14.785,,,,,0,12,12,12,649.5179599999992,,,,,,,,,,,,650.2377958750003,650.2689214163333,650.2594899579999,665.0425052499995,665.055853124999,665.0671047920005,665.0760875830001,665.0760875830001,682.810628457999,"i can even out your freckes, i dont think they are distracting. okay great do you want a magazine ",1,[17.742096375000983],[17.742099291999693],,,,,,,,649.50881725,649.5179599999992,649.5179599999992,649.5179599999992,650.2375521670001,1,[0.7253901250005583],[0.7254038329992909],,,,,p_3,001,2024-03-28_13h09.40.926,speech_rate,2023.2.3,None,2024-03-28 13h11.49.309490 -0700,
,Someday_141_condition.wav,Someday__Someday__Maybe__Unabridged___File_088_of_116_1.wav,"Pink eye I keep repeating the phrase as if that will somehow make it disappear from Jane's face pink eye you have pink eye How can you be sure? Well by looking in the mirror for one thing, but maybe you just have something in your eye or allergies. Sorry Franny I've had it before this is what it looks like. It's really contagious. There's no way I can go Jane was going to be my date for Katie's wedding Jane had arranged the rental car in her name Jane has pink eye if you can't go I can't go",What does Jane have?,A. Cold,B. Pink eye,C. Flu,D. Bruises,B. Pink eye,yes,30.02221875,,,,,0,13,13,13,682.8200307499992,,,,,,,,,,,,684.7960536249993,684.8453010830005,684.8374194579992,714.8730011669995,714.8748682919995,714.896252999999,714.9055181250005,714.9055181250005,734.5799884999997,jane has pink eye. she arranged the rental car and was going to be the date for the wedding.,1,[19.682286207998914],[19.682289250000395],,,,,,,,682.8109532500002,682.8200307499992,682.8200307499992,682.8200307499992,684.7958713749995,1,[1.982215375001033],[1.9822182080006314],,,,,p_3,001,2024-03-28_13h09.40.926,speech_rate,2023.2.3,None,2024-03-28 13h11.49.309490 -0700,
,Someday_59_condition-2x.wav,Someday__Someday__Maybe__Unabridged___File_028_of_116_1.wav,It's all sort of a a vacuum isn't it Yes it can be I guess Everett isn't saying anything I haven't thought before but there's something so depressing in her description Something less than comforting in her attempt to be understanding in My work ever it says in mergers and amalgamations We're seeing a real boom Lbo's are still the cornerstone of the business obviously but the increase in global capital flows is translating to even more revenue,What does Everett's description sound like to the narrator?,A. Comforting,B. Understanding,C. Concerned,D. Depressing,D. Depressing,yes,14.995,,,,,0,14,14,14,734.5897497919996,,,,,,,,,,,,735.3826239579994,735.4151497083335,735.403967541999,750.408294249999,750.4124057079989,750.4236399580004,750.4323429169999,750.4323429169999,768.7151343749993,the ebs and flows is even more revenue,1,[18.290188541001044],[18.29019150000022],,,,,,,,734.5803148329996,734.5897497919996,734.5897497919996,734.5897497919996,735.3824491249998,1,[0.8015340000001743],[0.8015365840001323],,,,,p_3,001,2024-03-28_13h09.40.926,speech_rate,2023.2.3,None,2024-03-28 13h11.49.309490 -0700,
,Someday_131_condition-2-5x.wav,Someday__Someday__Maybe__Unabridged___File_058_of_116_1.wav,It sounds ominous For a minute I stare into the camera which is set up on a tripod facing the chair Then I realize that if the camera sees everything it's seeing me now stare dumbly into it I've had cameras at auditions before of course but for commercials you generally look directly into them a man versus machine staring contest Today however I'm going to be reading with a person while the camera regards me from another angle and I'm supposed to pretend that doesn't make me feel self conscious,How does the camera make the narrator feel?,A. Self conscious,B. Excited,C. Motivated,D. Emotional,A. Self conscious,yes,13.179875,,,,,0,15,15,15,768.7233405829993,,,,,,,,,,,,770.3009641669996,770.3168768746657,770.320327292,783.5099736669999,783.5121247919997,783.5233584580001,783.5321789169993,783.5321789169993,804.6843888749991,the camera is looking at her from a different angle and she needs to pretend that it doesnt make her feel self conscious,1,[21.15964108300068],[21.159644167000806],,,,,,,,768.7154623749993,768.7233405829993,768.7233405829993,768.7233405829993,770.3007844170006,1,[1.5834679580002557],[1.5834706250007002],,,,,p_3,001,2024-03-28_13h09.40.926,speech_rate,2023.2.3,None,2024-03-28 13h11.49.309490 -0700,
,Someday_15_condition.wav,Someday__Someday__Maybe__Unabridged___File_009_of_116_3.wav,Whenever Jane talks about Russell Blakely all I can picture is that line everybody was quoting from his last movie Steel Entrapment where he calls out to Cordelia Biscayne honey I'm home while hanging by one hand from the landing gear of a helicopter bare chested Today's special is from the set of Kill Time an assortment of bagels that were only out on the craft service table for about three hours but are not sadly accompanied by cream cheese and that Chinese rice thing that Dan likes which I don't think was too aggressively sneezed upon,What does Russell Blakely calls out to Cordelia Biscayne in the movie Steel Entrapment?,A. "Sweetie I'm out",B. "Baby I'm back",C. "Darling I've arrived",D. "Honey I'm home",D. "Honey I'm home",no,29.3,,,,,0,16,16,16,804.693098374999,,,,,,,,,,,,805.4156198750006,805.4479047913323,805.4512835000005,834.7834777080006,834.7516571249998,834.7739422079994,834.7834777080006,834.7834777080006,853.6699833330003,cream cheese that dan likes and i dont think was too aggresively sneezed upon,1,[18.894576499998948],[18.894579832998716],,,,,,,,804.6847169169996,804.693098374999,804.693098374999,804.693098374999,805.415431166999,1,[0.7288100410005427],[0.7288125000013679],,,,,p_3,001,2024-03-28_13h09.40.926,speech_rate,2023.2.3,None,2024-03-28 13h11.49.309490 -0700,
,Someday_111_condition-2x.wav,Someday__Someday__Maybe__Unabridged___File_048_of_116_4.wav,Where would he have gotten the picture You see them on the street sometimes I don't know I'm just saying It's occurred to me Because other than him that one very famous person do you recognize anyone else on that wall Well there's that cast photo from Cats with all the people in their cat costumes I don't recognize them individually but as a group they seem authentic But besides the somewhat believable cats Wait yes There's that actress My mother loved her She was on that detective show in the 60s,What are the narrator and her friend discussing on the wall?,A. A picture of a famous person,B. A cast photo from the musical Cats,C. A detective show from the '60s,D. Pictures of people on the street,A. A picture of a famous person,no,14.755,,,,,0,17,17,17,853.6798012079998,,,,,,,,,,,,854.4154917920005,854.4463466663333,854.4360489579994,869.188366458,869.2094447500003,869.2207019580001,869.229652,869.229652,880.4219472919995,cats detective show in the 60s ,1,[11.199810666999838],[11.199816624999585],,,,,,,,853.6704394579992,853.6798012079998,853.6798012079998,853.6798012079998,854.4139721669999,1,[0.7426114579993737],[0.7426141659998393],,,,,p_3,001,2024-03-28_13h09.40.926,speech_rate,2023.2.3,None,2024-03-28 13h11.49.309490 -0700,
,Someday_35_condition-3x.wav,Someday__Someday__Maybe__Unabridged___File_020_of_116_0.wav,Who put that there Oh No is that what I said Yes that was it I have no idea why it doesn't even make sense Who put that there How stupid I just couldn't think of anything else They laughed though I think they laughed Maybe they gasped in horror No they definitely laughed when I said that They gasped when I fell that's what it was Was it a gasp of disgust were they merely expressing concern for my safety I can't remember,What does the narrator wonder about the audience's reaction?,A. Whether they laughed or gasped,B. Whether they cried or screamed,C. Whether they left the play,D. Whether they were distracted,A. Whether they laughed or gasped,no,11.04375,,,,,0,18,18,18,880.4307832920003,,,,,,,,,,,,881.1552798749999,881.1712295416658,881.1721663749995,892.2162567920004,892.2184184580001,892.2294847079993,892.2384203750007,892.2384203750007,908.2567748750007,gasped when i fell or they laughed or was it about my safety i dont remember,1,[16.025891790999594],[16.02589487499972],,,,,,,,880.4222910419994,880.4307832920003,880.4307832920003,880.4307832920003,881.1551037079989,1,[0.7308282500016503],[0.7308306670001912],,,,,p_3,001,2024-03-28_13h09.40.926,speech_rate,2023.2.3,None,2024-03-28 13h11.49.309490 -0700,
,Someday_147_condition-3-5x.wav,Someday__Someday__Maybe__Unabridged___File_092_of_116_5.wav,"It's the perfect thing to say, and I lean my head on his shoulder, grateful not to have to explain myself further. My cousin Katie makes her way across the dance floor, hand in hand with her new husband. She's still in her wedding gown but has traded her heels for high-top sneakers, more comfortable for dancing. She hugs everyone as she passes, and her groom shakes hands, and sometimes they join in to dance with some of the couples on the floor. When she spots me, she leaves his side for a moment, reaching out to grab my hand and putting her arm around Dan.",What is cousin Katie wearing?,A. Sneakers,B. High heels,C. Loafers,D. Sandals,A. Sneakers,yes,10.12971875,,,,,0,19,19,19,908.2649836250002,,,,,,,,,,,,908.6565900419992,908.6725385416669,908.6724613330007,918.8248252920002,918.8050800000001,918.815741041999,918.8248252920002,918.8248252920002,931.2583187079999,groom and bride and putting her arm around dan and dancing,1,[12.441080833999877],[12.441083833999073],,,,,,,,908.2570926669996,908.2649836250002,908.2649836250002,908.2649836250002,908.6564155420001,1,[0.397531540998898],[0.397534124998856],,,,,p_3,001,2024-03-28_13h09.40.926,speech_rate,2023.2.3,None,2024-03-28 13h11.49.309490 -0700,
,Someday_94_condition-4x.wav,Someday__Someday__Maybe__Unabridged___File_041_of_116_1.wav,He doesn't say anything so I feel obligated to keep going It's as if I'm not driving this train anymore I'm just holding on trying not to crash completely I've always loved the theater I say Thank God It isn't original but it's TRUE at least My dad would take me when I was a kid to whatever little show was playing in our town in Connecticut and we'd also see most of what was in New Haven and sometimes we'd come into the city and it wasn't just theater It was ballet and music and modern dance too I pause,What is the narrator's childhood connection to the theater?,A. She used to perform in school plays,B. Her father would take her to various shows,C. She always dreamed of becoming an actor,D. She was part of a local theater group,B. Her father would take her to various shows,no,7.4825,,,,,0,20,20,20,931.2658985420003,,,,,,,,,,,,931.8082707079993,931.8242075836663,931.8204322919992,939.3019901669995,939.320938249999,939.3321606249992,939.3408674170005,939.3408674170005,945.7922857920003,thank god and thats new i pause,1,[6.458694791001108],[6.45869783300077],,,,,,,,931.2586417080001,931.2658985420003,931.2658985420003,931.2658985420003,931.808092457999,1,[0.5489271250007732],[0.5489296249998006],,,,,p_3,001,2024-03-28_13h09.40.926,speech_rate,2023.2.3,None,2024-03-28 13h11.49.309490 -0700,
,Someday_130_condition.wav,Someday__Someday__Maybe__Unabridged___File_057_of_116_2.wav,Are you sure you're here for Ebony Breeze perfume What Oh no I'm here for Pine Tree Lodge I thought so You're on the wrong floor P L is on 34 one more up Oh oh thank God I sputter I mean I didn't I got out too I was confused because I gesture helplessly to the room behind me,What mistake does the narrator realize she has made?,A. Coming to the wrong appointment for a perfume,B. Misunderstanding the product she is endorsing,C. Being on the incorrect floor for her intended destination,D. Forgetting the name of the perfume she is promoting,C. Being on the incorrect floor for her intended destination,no,29.10465625,,,,,0,21,21,21,945.8004367079993,,,,,,,,,,,,946.3922772919996,946.4248921253334,946.4239683329997,975.5201525829998,975.5304805830001,975.5520266250005,975.5609679169993,975.5609679169993,990.1949592919991,pine tree lodge on the wrong floor gesture to the room behind me ,1,[14.641444582999611],[14.641447541998787],,,,,,,,945.792607292,945.8004367079993,945.8004367079993,945.8004367079993,946.3921015830001,1,[0.597724459001256],[0.5977270000003045],,,,,p_3,001,2024-03-28_13h09.40.926,speech_rate,2023.2.3,None,2024-03-28 13h11.49.309490 -0700,
,Someday_47_condition-3-5x.wav,Someday__Someday__Maybe__Unabridged___File_024_of_116_3.wav,I almost feel as though I belong in this crowd tonight or that it's possible I could someday Absolute agency You're kidding me Look at you Dina hugs me hard when I tell her the news her perfectly polished red nails squeezing my arms Rockstar And another agency called Sparks Sparks That's Barney Sparks It's just him He's the whole office He's great He's been around a long time Dina holds her wine glass up already half empty and smiles,What does Dina do when the narrator tells her the news?,A. She hugs her,B. She shakes her hand,C. She kisses her,D. She cheers for her,A. She hugs her,no,9.39375,,,,,0,22,22,22,990.203649916999,,,,,,,,,,,,990.861471708,990.877380291666,990.8764538329997,1000.2721966669997,1000.2747886249999,1000.2854320000006,1000.2943310829996,1000.2943310829996,1009.2772999579993,rockstar smiles,1,[8.990408416000719],[8.990411541000867],,,,,,,,990.1952917920007,990.203649916999,990.203649916999,990.203649916999,990.861289041999,1,[0.664065416000085],[0.6640678330004448],,,,,p_3,001,2024-03-28_13h09.40.926,speech_rate,2023.2.3,None,2024-03-28 13h11.49.309490 -0700,
,Someday_78_condition-2x.wav,Someday__Someday__Maybe__Unabridged___File_036_of_116_0.wav,And I would like to help you get started So he claps his hands together once for emphasis as if he's just pulled a rabbit out of his hat and wants to make sure the audience sees it I'm stunned He just said he wants to work with me I thought it would be so much harder to get anyone in the professional world to say that ever An actual real life agent wants to represent me I don't have to do this alone I'm shocked What is that,What is the narrator's reaction to the agent's offer?,A. She is excited and grateful,B. She is stunned,C. She is uninterested in the offer,D. She expected the offer,B. She is stunned,no,14.085,,,,,0,23,23,23,1009.2887389579992,,,,,,,,,,,,1011.260873666999,1011.2763919166666,1011.2801964999999,1025.3735599579995,1025.3740290419992,1025.3842439170003,1025.3923403749995,1025.3923403749995,1042.466713624999,agent wants to represent me. pulls a rabbit out of the hat. i am stunned. what is that ,1,[17.080969959000868],[17.080972959000064],,,,,,,,1009.2776478329997,1009.2887389579992,1009.2887389579992,1009.2887389579992,1011.2606622919993,1,[1.982462250000026],[1.9824647910008935],,,,,p_3,001,2024-03-28_13h09.40.926,speech_rate,2023.2.3,None,2024-03-28 13h11.49.309490 -0700,
,Someday_81_condition-3x.wav,Someday__Someday__Maybe__Unabridged___File_037_of_116_2.wav,He's looking for meaning in his life and his art Oh is that all Yep Just the plain old everyday quest for the meaning of life A beautiful actress wearing glasses says something to the director played by Marcello Mastriani Her mouth keeps moving even after her voice has stopped The sink seems off It was the style of Italian filmmakers of the day to dub all the dialogue in later Dan explains eyes still pinned to the screen,What was the style of Italian filmmakers?,A. Dubbing all the dialogue later,B. Using a lot of jump cuts,C. Prioritizing cheap productions,D. Casting tall leads,A. Dubbing all the dialogue later,no,11.33625,,,,,0,24,24,24,1042.4903759999997,,,,,,,,,,,,1043.2459223330006,1043.2614523746672,1043.2640819999997,1054.6087718750005,1054.611243292,1054.6224927919993,1054.6318854580004,1054.6318854580004,1070.999205958,quest for the meaing of life. eyes pinned to the screen.,1,[16.375268666999546],[16.375271625000096],,,,,,,,1042.4670352920002,1042.4903759999997,1042.4903759999997,1042.4903759999997,1043.2457447920006,1,[0.7769403330003115],[0.7769430830012425],,,,,p_3,001,2024-03-28_13h09.40.926,speech_rate,2023.2.3,None,2024-03-28 13h11.49.309490 -0700,
,Someday_89_condition-2x.wav,Someday__Someday__Maybe__Unabridged___File_039_of_116_2.wav,Excuse me can you tell me what day of the week it is they'll say and laugh I'm leaning awkwardly against the wall near the door not sure what to do while I wait Maybe I should sit Plenty of people use sitting as a way to pass the time I look at the giant table and multitude of chairs Unless a bunch of people are going to join us this seems a strange room to choose for a meeting of two Yes I think I'll sit But I'm not sure which spot to choose I'm not totally sure I even want to sit yet,Why does the narrator feel uncertain about sitting in the room?,A. She is worried about her outfit,B. She doesn't know which chair to choose,C. She perefers to stand,D. She has somewhere else to be,B. She doesn't know which chair to choose,yes,14.37,,,,,0,25,25,25,1071.0072976249994,,,,,,,,,,,,1071.648711124999,1071.6637177916657,1071.669379125,1086.033589499999,1086.0377962919993,1086.0480352499999,1086.0570490419996,1086.0570490419996,1103.2010644170005,excuse me how do i pass the time i guess i will sit but i am not even sure if i want to sit yet,1,[17.151569416999337],[17.151572333999866],,,,,,,,1070.999519957999,1071.0072976249994,1071.0072976249994,1071.0072976249994,1071.6484218749993,1,[0.6470254169998952],[0.6470286669991765],,,,,p_3,001,2024-03-28_13h09.40.926,speech_rate,2023.2.3,None,2024-03-28 13h11.49.309490 -0700,
,Someday_99_condition-3-5x.wav,Someday__Someday__Maybe__Unabridged___File_044_of_116_1.wav,There are the things we all know we're supposed to have monologue comedic and dramatic song up tempo and ballad but there's a serious lack of information beyond that Today I need a funny laugh but what else should I know how to do Roller skating maybe That seems to come up a lot lately Jokes I should know more jokes in case I ever get asked if I've heard any good jokes lately but I'm not a good joke teller I always mess up the endings Maybe I should try to memorize a knock knock joke at least just in case,What does the narrator feel she need to learn for auditions?,A. Harseback riding,B. Jokes,C. Monologues,D. Ballads,B. Jokes,yes,8.63125,,,,,0,26,26,26,1103.2089844170005,,,,,,,,,,,,1104.186234375,1104.2020322916671,1104.2001477079993,1112.8449718749998,1112.8475117920007,1112.8587194579995,1112.8678878749997,1112.8678878749997,1122.869050457999,maybe i should memorize a joke,1,[10.008829125001284],[10.008832208000968],,,,,,,,1103.2013834579993,1103.2089844170005,1103.2089844170005,1103.2089844170005,1104.1860563329992,1,[0.9840424169997277],[0.9840449170005741],,,,,p_3,001,2024-03-28_13h09.40.926,speech_rate,2023.2.3,None,2024-03-28 13h11.49.309490 -0700,
,Someday_102_condition.wav,Someday__Someday__Maybe__Unabridged___File_045_of_116_0.wav,Well it's just mainly a gag you know says the man in glasses a gag I repeat Yes a running gag like how she laughs on the nanny But we don't want it to sound anything like her laugh the man in the back of the room says emphatically Yes of course it's a laugh That's all her own just a girl who laughs funny for no particular reason the man with glasses says Okay Thanks and sorry but what do I do do,What is the character's laugh intended to be in the audition scene?,A. A running gag,B. A natural laugh,C. A villan's laugh,D. A serious and dramatic laugh,A. A running gag,no,28.03,,,,,0,27,27,27,1122.8778936670005,,,,,,,,,,,,1123.6524386250003,1123.6850227083328,1123.6826708749995,1151.7036871250002,1151.715521917,1151.7362118330002,1151.745235667,1151.745235667,1171.1548600419992,funny laugh like the person on the nanny but dont do that. so what do i do. with glasses.,1,[19.417175792001217],[19.4171788750009],,,,,,,,1122.869375541999,1122.8778936670005,1122.8778936670005,1122.8778936670005,1123.6522647919992,1,[0.7808747910003149],[0.7808773750002729],,,,,p_3,001,2024-03-28_13h09.40.926,speech_rate,2023.2.3,None,2024-03-28 13h11.49.309490 -0700,
,Someday_42_condition-3x.wav,Someday__Someday__Maybe__Unabridged___File_023_of_116_0.wav,There will be another showcase next year but my deadline expires way before then and I refuse to break it I refuse to become one of those people who can't accept the truth that it just isn't going to happen for them Something cold grabs my heart and my mouth falls open Maybe I've already become one of them while I wasn't looking Maybe I can't accept the truth that it just isn't going to happen for me Maybe I already know but I can't admit it How many more days of waiting do I really need before I have to face facts,When will be the next showcase?,A. Next year,B. Next month,C. Next week,D. Next fall,A. Next year,yes,11.055,,,,,0,28,28,28,1171.1630029579992,,,,,,,,,,,,1172.453718875,1172.4691801246665,1172.4701549170004,1183.5323616250007,1183.5355207920002,1183.556550207999,1183.5651734999992,1183.5651734999992,1199.2901425420005,maybe this just isnt happening for me. how do i admit it before i have to face facts,1,[15.732150541998635],[15.73215354199965],,,,,,,,1171.1551773329993,1171.1630029579992,1171.1630029579992,1171.1630029579992,1172.4535093329996,1,[1.2966209999995044],[1.2966238330009219],,,,,p_3,001,2024-03-28_13h09.40.926,speech_rate,2023.2.3,None,2024-03-28 13h11.49.309490 -0700,
,Someday_24_condition-4x.wav,Someday__Someday__Maybe__Unabridged___File_015_of_116_0.wav,Thanks I say and then for no reason Any adjustments Stupid stupid Don't ask to do it again when you don't know what you did in the first place They both cock their heads at the same angle like two puppies in a pet store window Then they nod to each other again Sure yeah let's do one more just for kicks Yeah I mean that was great but let's in this one really have fun with it but also take it seriously like you did Yeah serious but fun like you're talking to your best friend Yeah like you're sharing a secret with your best friend,What do the casting directors suggest after the narrator's audition?,A. They compliment her performance,B. They ask her to do it in a more fun but serious way,C. They reject her immediately,D. They offer her the role,B. They ask her to do it in a more fun but serious way,no,7.475,,,,,0,29,29,29,1199.2978530830005,,,,,,,,,,,,1199.8569399169992,1199.8728462086658,1199.8700449169992,1207.350824957999,1207.3514190829992,1207.3624830419994,1207.3706231670003,1207.3706231670003,1215.8909375000003,she is my best friend. get kicks.,1,[8.527029582999603],[8.527032457999667],,,,,,,,1199.2904752920003,1199.2978530830005,1199.2978530830005,1199.2978530830005,1199.8567642079997,1,[0.5657293750009558],[0.5657320410009561],,,,,p_3,001,2024-03-28_13h09.40.926,speech_rate,2023.2.3,None,2024-03-28 13h11.49.309490 -0700,
,Someday_38_condition-2x.wav,Someday__Someday__Maybe__Unabridged___File_021_of_116_0.wav,Standing this close to him for the second time it occurs to me that his scarf is homemade and I feel a pang of jealousy wondering who knit it for him I like to be cold I say in what I hope is an appealing yet mysterious way that will make him regret not calling me while trying not to shiver Did you were you just in there I ask eyeing him carefully please God say no In the audience Yeah I was standing in the back It's over They just had curtain call,What does the narrator feel jealous about?,A. The actor's performance,B. The actor's homemade scarf,C. The audience's response,D. The actor's phone call,B. The actor's homemade scarf,no,14.79,,,,,0,30,30,30,1215.8991276670004,,,,,,,,,,,,1217.5578301250007,1217.5903657503336,1217.5802949999998,1232.3855803749993,1232.3883532500004,1232.3996105419992,1232.4084841669992,1232.4084841669992,1250.4266632500003,"where a scarf jealous of who made it. curtain call. i like being cold, i am misterious ",1,[18.02553812500082],[18.025541208000504],,,,,,,,1215.891254541999,1215.8991276670004,1215.8991276670004,1215.8991276670004,1217.557649041999,1,[1.6646814169998834],[1.6646839170007297],,,,,p_3,001,2024-03-28_13h09.40.926,speech_rate,2023.2.3,None,2024-03-28 13h11.49.309490 -0700,
,Someday_125_condition-3-5x.wav,Someday__Someday__Maybe__Unabridged___File_054_of_116_5.wav,I sit up as if he might be able to see through the telephone that I was lying down at an undignified hour still in the shorts and tank top I slept in I clear my throat and try to make my voice sound more awake It's me It's her That doesn't sound right It is I Hello I Did I wake you up No I'm awake Have a cold Oh shoot Is it a really bad one Joe has an audition for you I've just made an extremely speedy recovery Great Great,What does the narrator say she has?,A. A cold,B. A headache,C. A sore throat,D. A flu,A. A cold,no,9.353125,,,,,0,31,31,31,1250.435459541999,,,,,,,,,,,,1251.4764183749994,1251.4922541246672,1251.490826207999,1260.8536552080004,1260.8566935420004,1260.867915375,1260.8769848329994,1260.8769848329994,1275.9111964170006,maybe a speedy recovery i have an interview for you great,1,[15.04155479200017],[15.041561457999705],,,,,,,,1250.4269788750007,1250.435459541999,1250.435459541999,1250.435459541999,1251.476231875,1,[1.047262000000046],[1.0472645000008924],,,,,p_3,001,2024-03-28_13h09.40.926,speech_rate,2023.2.3,None,2024-03-28 13h11.49.309490 -0700,
,Someday_17_condition-2-5x.wav,Someday__Someday__Maybe__Unabridged___File_011_of_116_0.wav,Are you sure you won't come back with me now He asked last time as I waited with him at his gate at the airport I just not yet Okay he said and then with a wink call me when you change your mind Sometimes when the tips are bad and my feet ache I wonder why I'm putting off the inevitable I wonder why I don't just pick up the phone and move to Chicago rather than continuing to attempt something that has a less than 5 success rate,What does the narrator contemplate while dealing with the hardships of her current situation?,A. Whether to continue waiting at the airport,B. Whether to ask for better tips to ease the pain in her feet,C. Why she is delaying a significant change in her life,D. Why she isn't more successful in her current endeavors,C. Why she is delaying a significant change in her life,no,12.569375,,,,,0,32,32,32,1275.9188454579999,,,,,,,,,,,,1276.6944841669992,1276.7103602496666,1276.7121630830006,1289.2887819999996,1289.291701917,1289.3029764580006,1289.3117347919997,1289.3117347919997,1311.629751458,why dont i just go to chicago rather than continue with something that has a less than five percent success rate,1,[22.32529145800072],[22.325294541000403],,,,,,,,1275.9115342919995,1275.9188454579999,1275.9188454579999,1275.9188454579999,1276.6943051670005,1,[0.7821922920011275],[0.7821949580011278],,,,,p_3,001,2024-03-28_13h09.40.926,speech_rate,2023.2.3,None,2024-03-28 13h11.49.309490 -0700,
,Someday_75_condition-4x.wav,Someday__Someday__Maybe__Unabridged___File_035_of_116_3.wav,He doesn't have the greatest sense of his own volume He never raises his voice to people intentionally but he's always loud He says volume is his trademark and the community respects him for it Francis Banks he says again Great name a classic You can bank on banks I can see the headline in the Hollywood Reporter He takes a deep rattly breath which he seems to have to do any time he strings more than two sentences together His breathing is labored and like his voice astonishingly loud A classy name for a classy gal Look at you,How is Barney Sparks' sense of volume described?,A. Quiet and reserved,B. Loud and unintentional,C. Moderate and controlled,D. Variable and unpredictable,B. Loud and unintentional,yes,8.1425,,,,,0,33,33,33,1311.6378518330002,,,,,,,,,,,,1312.4466710420002,1312.4625388746665,1312.4606385419993,1320.6072331670002,1320.6100675830003,1320.6213062080005,1320.630638999999,1320.630638999999,1330.9144680829995,his voice is very loud and labored,1,[10.291663667001558],[10.291666792001706],,,,,,,,1311.6300700829997,1311.6378518330002,1311.6378518330002,1311.6378518330002,1312.4464908749997,1,[0.8146793329997308],[0.8146817910001118],,,,,p_3,001,2024-03-28_13h09.40.926,speech_rate,2023.2.3,None,2024-03-28 13h11.49.309490 -0700,
,Someday_113_condition-2x.wav,Someday__Someday__Maybe__Unabridged___File_050_of_116_0.wav,She lives I think I need a manager Why do you need a manager I thought you just got an agent I did but they aren't getting me any auditions If you have no auditions what's there to manage A manager would help me get auditions How could a manager do that when the agents can't Well managers have fewer people so they can focus just on you And why do you have an agent at all Why not just have a manager You have to have an agent They're the only ones allowed to negotiate contracts Agents are franchised managers aren't,Why does the narrator want to get a manager?,A. To help negotiate contracts,B. To get auditions,C. Because agents are expensive,D. To manage the finances,B. To get auditions,no,14.00996875,,,,,0,34,34,34,1330.9230536670002,,,,,,,,,,,,1331.6657934169998,1331.694865625334,1331.6850289169997,1345.7087345420005,1345.7113567920005,1345.7216721669993,1345.730954875,1345.730954875,1357.0660247079995,managers and agents and franchise ,1,[11.342851250001331],[11.342857042000105],,,,,,,,1330.9147958329995,1330.9230536670002,1330.9230536670002,1330.9230536670002,1331.6655630000005,1,[0.7485275840008399],[0.7485396250012855],,,,,p_3,001,2024-03-28_13h09.40.926,speech_rate,2023.2.3,None,2024-03-28 13h11.49.309490 -0700,
,Someday_126_condition.wav,Someday__Someday__Maybe__Unabridged___File_055_of_116_1.wav,What luck maybe this is going to be okay Maybe I'm not repulsive and mushy after all I'm a genius who has been in studious self imposed exile whilst honing my craft waiting for this day to come with patience and nobility It was meant to be Yes I know it I know it a little too well actually Great then just get over there as quickly as you can They're closing the session at 2 p m I'll fax you the sides and the appointment info Just call us with any questions and break a leg,What is the narrator's attitude towards her own preparation and opportunity?,A. Uncertain and self-critical about her appearance and skills,B. Confident and self-assured about the effort put into her craft,C. Indifferent and unprepared for the upcoming opportunity,D. Overwhelmed and doubtful about meeting the appointment on time,B. Confident and self-assured about the effort put into her craft,no,28.41828125,,,,,0,35,35,35,1357.073519042,,,,,,,,,,,,1357.8326319999996,1357.8651575833323,1357.8637345829993,1386.2945166669997,1386.2976384169997,1386.3191982919998,1386.3286437080005,1386.3286437080005,1397.084600958,fax call us with any questions and break a leg,1,[10.763819207999404],[10.763823625000441],,,,,,,,1357.0663412499998,1357.073519042,1357.073519042,1357.073519042,1357.832449042,1,[0.7655066249990341],[0.7655090839998593],,,,,p_3,001,2024-03-28_13h09.40.926,speech_rate,2023.2.3,None,2024-03-28 13h11.49.309490 -0700,
,Someday_145_condition-2-5x.wav,Someday__Someday__Maybe__Unabridged___File_092_of_116_2.wav,"Actually, it's just Franny, I say, and my voice sounds strangely cold. Of course, so sorry, I knew that. I guess I'm a little nervous to finally meet you, she admits shyly, and my father gazes at her, delighted. Dinner arrives and I finally manage to sputter out a few sentences as I pick at my burger. The Finnegans always have a barbecue instead of a caterer, and usually I love how homey and informal and comforting the food is, but tonight I've lost my appetite.",What do the Finnegans prefer over a caterer?,A. A home cooked meal,B. Ordering take out,C. A potluck,D. A barbecue,D. A barbecue,yes,13.5599375,,,,,0,36,36,36,1397.0927105419996,,,,,,,,,,,,1398.0178365829997,1398.033675083667,1398.0366060420001,1411.5957308750003,1411.5988308329997,1411.6092121250003,1411.618733207999,1411.618733207999,1429.236130707999,like the food at finnegans it is homey but tonight lost my appetite ,1,[17.625384624998333],[17.625387874999433],,,,,,,,1397.0849199580007,1397.0927105419996,1397.0927105419996,1397.0927105419996,1398.017657208,1,[0.9309457499985001],[0.9309483339984581],,,,,p_3,001,2024-03-28_13h09.40.926,speech_rate,2023.2.3,None,2024-03-28 13h11.49.309490 -0700,
,Someday_9_condition-2-5x.wav,Someday__Someday__Maybe__Unabridged___File_008_of_116_1.wav,For the Stevie Nicks fan club Jane seriously say something helpful She tilted her head studying me carefully Honestly Franny all I can think of to say is you look like you work at a really great bakery in Maine I have class tonight after my audition so today I go for young mom meets acting class neutral black sweater black tights short black wool skirt and my Doc Martin Oxford lace up shoes Not super mom ish but practical for walking,What does Jane say the narrator looks like?,A. Like she works at a bakery,B. Like she is a movie star,C. Like she is a student at Oxford,D. Like she is a mom,A. Like she works at a bakery,no,13.155625,,,,,0,37,37,37,1429.244469833,,,,,,,,,,,,1429.8875413330006,1429.9031971666666,1429.906252625,1443.063912083,1443.066786333,1443.0876751670003,1443.0969392080005,1443.0969392080005,1461.5384346669998,you look like you live in main. you have your doc martins and are a mum not practical for walking.,1,[18.449225583000953],[18.449228541001503],,,,,,,,1429.2364735419997,1429.244469833,1429.244469833,1429.244469833,1429.8872135000001,1,[0.6489117080000142],[0.6489142499995069],,,,,p_3,001,2024-03-28_13h09.40.926,speech_rate,2023.2.3,None,2024-03-28 13h11.49.309490 -0700,
,Someday_132_condition-3x.wav,Someday__Someday__Maybe__Unabridged___File_073_of_116_2.wav,"I place my bag down carefully, quietly, as if despite what he said, he's potentially both asleep and sick. I take my shoes off and tiptoe across the living room, up the circular metal staircase, and into my bedroom. I decide I'll call James after I shower, secretly hoping that he'll call me first. I'll wait until I'm completely ready to go out before I'll allow myself to even glance at the machine. If I don't cheat, if I'm strong, it will work. I bet he'll have called me by the time I finish getting ready.",What does the main character hope to do after getting home?,A. Call James,B. Check her email,C. Watch TV,D. Take a nap,A. Call James,yes,11.6528125,,,,,0,38,38,38,1461.5461285830006,,,,,,,,,,,,1462.4552039579994,1462.471048458667,1462.471949375,1474.1323792500007,1474.135666958,1474.1468878329997,1474.1562040419994,1474.1562040419994,1492.5567008750004,dont cheat be strong call me before i have finished getting ready ,1,[18.40819704200112],[18.408200042000317],,,,,,,,1461.538765166999,1461.5461285830006,1461.5461285830006,1461.5461285830006,1462.4550279579998,1,[0.9156464160005271],[0.9156488749995333],,,,,p_3,001,2024-03-28_13h09.40.926,speech_rate,2023.2.3,None,2024-03-28 13h11.49.309490 -0700,
,Someday_36_condition-4x.wav,Someday__Someday__Maybe__Unabridged___File_020_of_116_1.wav,Everyone already knows everyone knows I fell they saw everything I'm humiliated What's that I say trying to buy myself some time to figure out how to respond with dignity nice class I said huh Right Everyone seems to be doing well tonight Oh Right Yes they do Did you by any chance see my monologue No sorry but I heard part of it on the monitor sound like you really went for it Oh Thanks Yes I do think I went for it,How does the narrator feel after monologue?,A. She is humiliated,B. She is satisfied,C. She is happy,D. She is moved by it,A. She is humiliated,no,7.4575,,,,,0,39,39,39,1492.5650178750002,,,,,,,,,,,,1493.4584601669994,1493.4742589166656,1493.4717905830003,1500.934143041999,1500.9348327919997,1500.945891792,1500.954778833,1500.954778833,1507.3244114999998,oh yes im ready for it ,1,[6.377040125000349],[6.377043000000413],,,,,,,,1492.5570372500006,1492.5650178750002,1492.5650178750002,1492.5650178750002,1493.4582830830004,1,[0.8994296249984473],[0.8994322919988917],,,,,p_3,001,2024-03-28_13h09.40.926,speech_rate,2023.2.3,None,2024-03-28 13h11.49.309490 -0700,
,Someday_100_condition-3-5x.wav,Someday__Someday__Maybe__Unabridged___File_044_of_116_2.wav,Who else laughs funny It seems all I can think of are people who have completely normal ways of laughing or Fran Drescher from The Nanny but that's her laugh It's only funny the way she does it Or is that what they want Someone who can copy someone else's already funny laugh rather than trying to invent a better one Now all I can think of is the laugh from The Nanny Maybe that's what I'll do then I can't think of anything else I'll just try to do a really good version of the laugh from The Nanny The girls are coming and going out of the audition room with incredible speed,What famous laugh does the narrator consider using for the audition?,A. A laugh from a family member,B. A laugh from a friend,C. The laugh from The Nanny,D. A unique and invented laugh,C. The laugh from The Nanny,yes,9.228125,,,,,0,40,40,40,1507.333144541999,,,,,,,,,,,,1508.6390206249998,1508.6514278746656,1508.6534768750007,1517.8849971670006,1517.8889892919997,1517.9097373749992,1517.9220183750003,1517.9220183750003,1533.3423635,i will try to do a really good impression of the laugh from the nanny coming with incredible speed.,1,[15.428371832998891],[15.428375124998638],,,,,,,,1507.3247339169993,1507.333144541999,1507.333144541999,1507.333144541999,1508.638770042,1,[1.3116488340001524],[1.3116661670010217],,,,,p_3,001,2024-03-28_13h09.40.926,speech_rate,2023.2.3,None,2024-03-28 13h11.49.309490 -0700,
,Someday_87_condition-2x.wav,Someday__Someday__Maybe__Unabridged___File_039_of_116_0.wav,The reception area is a soothing soft grey Everything is plush and velvet The carpet looks like shiny grey silk and the sofa is a silvery suede that appears freshly brushed as though no one has ever sat on it There's a long reception desk behind which sit two of the most beautiful people I have ever seen also swathed in grey The perfect specimen male is reading a script and the perfect specimen female is on a headset talking to someone in a British accent,How does the narrator describe the reception area of Absolute Artists?,A. It's brightly colored,B. It's cold and uninviting,C. It's plush and soothing,D. It's chaotic and messy,C. It's plush and soothing,yes,14.23996875,,,,,0,41,41,41,1533.3502112499991,,,,,,,,,,,,1534.0762977920003,1534.0921082496664,1534.0966370000006,1548.3365007920002,1548.3390572080007,1548.3500003749996,1548.3591039170005,1548.3591039170005,1566.3778490000004,two perfect people one has a british accent they are both beautiful,1,[18.026288917000784],[18.02629191699998],,,,,,,,1533.3426837919997,1533.3502112499991,1533.3502112499991,1533.3502112499991,1534.0761110000003,1,[0.7327834580009949],[0.7327859159995569],,,,,p_3,001,2024-03-28_13h09.40.926,speech_rate,2023.2.3,None,2024-03-28 13h11.49.309490 -0700,
,Someday_10_condition.wav,Someday__Someday__Maybe__Unabridged___File_008_of_116_2.wav,I've worn this combination so many times before that today my all black outfit feels a little boring a little blah What would Jane do I think to myself and pull a chunky brown leather belt from the top shelf of the closet slinging it low around my hips Finally taking weather and product into consideration I take the top part of my hair and tie it into a small black velvet scrunchie on top of my head The phone begins to ring from its place on the landing between my room and Jane's Hi Dad,What does the narrator wear to their class after the audition?,A. A black dress,B. A white t-shirt,C. A red skirt,D. A brown leather belt,D. A brown leather belt,no,28.93,,,,,0,42,42,42,1566.3865327080002,,,,,,,,,,,,1567.0611632500004,1567.093635083333,1567.0944828329993,1596.058681167,1596.027553124999,1596.0490556250006,1596.058681167,1596.058681167,1620.9477334580006,puts a scrunchy in her hair and takes product and weather into account and then the phone rings and its her dad. what would jane do.,1,[24.897010958000465],[24.897013750000042],,,,,,,,1566.3781756669996,1566.3865327080002,1566.3865327080002,1566.3865327080002,1567.060972457999,1,[0.6808834580006078],[0.6808858330005023],,,,,p_3,001,2024-03-28_13h09.40.926,speech_rate,2023.2.3,None,2024-03-28 13h11.49.309490 -0700,
,Someday_134_condition-2x.wav,Someday__Someday__Maybe__Unabridged___File_073_of_116_4.wav,"I don't want to admit it, but I'm still half-hoping to hear from James. But then I'm struck by how bad it would feel to wait for him on the night I just learned that no one's waiting for me anymore, and that catch you later okay isn't a plan, not a real one anyway. Maybe it wouldn't be such a bad thing if James called and got no answer. Um, okay? For what? He sits up, swinging his long legs down to the floor, then rubs his eyes and squints at me as if he's not sure whether he's awake or dreaming.",How does the narrator feel about receiving a call from James?,A. She is still hopeful,B. She is sure that he won't call,C. She doesn't care about it,D. She is optimistic,A. She is still hopeful,no,15.46003125,,,,,0,43,43,43,1620.956631957999,,,,,,,,,,,,1621.5640474169995,1621.579806541666,1621.5836749579994,1637.0650716250002,1637.0452431249996,1637.0556434579994,1637.0650716250002,1637.0650716250002,1651.6663833330003,not sure if he is awake or dreaming. james. sits up.,1,[14.609110291999968],[14.60911333399963],,,,,,,,1620.9480921670001,1620.956631957999,1620.956631957999,1620.956631957999,1621.5638680419997,1,[0.6137717090005026],[0.6137742920000164],,,,,p_3,001,2024-03-28_13h09.40.926,speech_rate,2023.2.3,None,2024-03-28 13h11.49.309490 -0700,
,Someday_95_condition.wav,Someday__Someday__Maybe__Unabridged___File_041_of_116_2.wav,Sports God no no That's hilarious to think about I laugh picturing me and my dad who have been known to spend an entire weekend sitting in the living room reading books one after the other stopping only to eat a frozen pizza or make popcorn playing tennis or skiing or kayaking down some rapids Competitive like I always made everything a game when I was a kid I have a good memory and so does my dad so we try to stump each other like try to start reciting Jabberwocky from the middle,What does the narrator and their dad often do on weekends?,A. Play sports together,B. Go kayaking down rapids,C. Reading books,D. Watch movies and eat popcorn,C. Reading books,yes,29.27996875,,,,,0,44,44,44,1651.673783582999,,,,,,,,,,,,1652.449571833,1652.4820351663334,1652.481564874999,1681.760624041999,1681.7659637920005,1681.7770620829997,1681.7865400419996,1681.7865400419996,1701.1687159169996,sports. laugh. try to say jabberwocky from the middle. recite.,1,[19.390014124999652],[19.39001704200018],,,,,,,,1651.6668057499992,1651.673783582999,1651.673783582999,1651.673783582999,1652.4493875829994,1,[0.7819241249999322],[0.7819267079994461],,,,,p_3,001,2024-03-28_13h09.40.926,speech_rate,2023.2.3,None,2024-03-28 13h11.49.309490 -0700,
,Someday_28_condition.wav,Someday__Someday__Maybe__Unabridged___File_017_of_116_0.wav,He has some sort of accent almost a drawl He's from the south somewhere Maybe he grew up on a farm in Texas or Georgia Maybe he had chores in the barn every day and helped his father harvest corn He still hasn't looked away from me He stands perfectly still not shifting at all I can feel myself rocking back and forth on my feet I try to stay steady like he does but it's impossible for me to do I really like your work in class I say ducking my head Oh yeah,How does the narrator feel about the person she encounters on the street?,A. She dislikes them,B. She is indifferent,C. She admires their work,D. She is terrified,C. She admires their work,no,28.1,,,,,0,45,45,45,1701.1775375830002,,,,,,,,,,,,1701.8188513749992,1701.8512472083335,1701.8495024170006,1729.9636920829998,1729.967467082999,1729.9891644580002,1729.9987343329994,1729.9987343329994,1749.5551481250004,has an accent from the south. maybe texas or georgia. ,1,[19.56438504200014],[19.56438816700029],,,,,,,,1701.1690482079994,1701.1775375830002,1701.1775375830002,1701.1775375830002,1701.8186627920004,1,[0.6475938340008724],[0.6475963339998998],,,,,p_3,001,2024-03-28_13h09.40.926,speech_rate,2023.2.3,None,2024-03-28 13h11.49.309490 -0700,
,Someday_40_condition-2x.wav,Someday__Someday__Maybe__Unabridged___File_021_of_116_3.wav,Aren't you cold It's James Franklin the last person I want to see right now Nothing could make me feel worse after what happened tonight than to be reminded that a guy I gushed all over got my phone number but never called me Even after I learned that he and Penelope were some sort of couple I held my breath every day for the last two weeks while waiting for the machine to rewind hoping he'd left a message but he never did James smiles at me and stamps his feet rubbing his hands together and blowing on them,Why does the narrator feel embarrassed to see James Franklin?,A. Because he got her phone number but never called,B. Because he is dating Penelope,C. Because he reminds her of a bad experience,D. Because he is unfriendly,A. Because he got her phone number but never called,no,14.14496875,,,,,0,46,46,46,1749.5640899579994,,,,,,,,,,,,1750.2881712920007,1750.303932416666,1750.3078767080005,1764.4859738750001,1764.4552390419994,1764.4767162919998,1764.4859738750001,1764.4859738750001,1782.023820208,james. its cold. he never left a message. blowing on his hands to make them warmer. ,1,[17.54547683400051],[17.545479709000574],,,,,,,,1749.5555275419993,1749.5640899579994,1749.5640899579994,1749.5640899579994,1750.2879874999999,1,[0.7303997079998226],[0.7304022499993152],,,,,p_3,001,2024-03-28_13h09.40.926,speech_rate,2023.2.3,None,2024-03-28 13h11.49.309490 -0700,
,Someday_25_condition-2x.wav,Someday__Someday__Maybe__Unabridged___File_015_of_116_1.wav,Yeah and could you maybe put your hair in a ponytail Yeah I'm even less sure of what I did the second time but the stick straights laugh again anyway I think a hair is funnier down don't you One of them says to the other who nods vigorously back As I leave the room I stuff the paper with the copy on it in my bag even though you're not supposed to take it with you and bolt for the elevator I walk a few blocks and I'm not sure what direction I'm so excited that they seem to like me that I'm dizzy and disoriented,What do the casting directors suggest regarding the narrator's hair?,A. They ask her to wear it down,B. They ask her to put it in a ponytail,C. They don't mention her hair,D. They suggest she wears a wig,B. They ask her to put it in a ponytail,no,14.395,,,,,0,47,47,47,1782.0310512079996,,,,,,,,,,,,1782.573588833,1782.5893793746657,1782.5934729170003,1797.0175104999998,1796.9876863749996,1797.0082797079995,1797.0175104999998,1797.0175104999998,1821.659502082999,they think she is funny. they are deciding on what hair style is better. she is disoriented and she leaves the room and dizzy,1,[24.649663625001267],[24.64966970900059],,,,,,,,1782.0241790830005,1782.0310512079996,1782.0310512079996,1782.0310512079996,1782.573400833,1,[0.5485483749998821],[0.5485509579993959],,,,,p_3,001,2024-03-28_13h09.40.926,speech_rate,2023.2.3,None,2024-03-28 13h11.49.309490 -0700,
,Someday_93_condition-2x.wav,Someday__Someday__Maybe__Unabridged___File_041_of_116_0.wav,It doesn't even matter whether it's a real person or an actor playing a character and if the person or character is interesting in some way I put myself in his or her shoes imagining what it would feel like what I would say or do if I were that person I don't remember deciding to do this as a career I want to tell him There wasn't any one day where it came to me My mother died and I started pretending it didn't happen to me started imagining what it would be like to have someone else's life story and pretending became a relief,What coping mechanism did the narrator develop after their mother's death?,A. The narrator chose to openly discuss her career decisions,B. The narrator decided to become an actor one specific day,C. The narrator began to use imagination and pretending as a form of escape,D. The narrator focused on the realism of the characters portrayed by actors,C. The narrator began to use imagination and pretending as a form of escape,no,14.345,,,,,0,48,48,48,1821.6684432919992,,,,,,,,,,,,1822.4407836669998,1822.456155541666,1822.4605338330002,1836.803425832999,1836.8067422919994,1836.8177042499992,1836.8272088329995,1836.8272088329995,1863.261728083,after my mum died i started pretending and imagining what it would be like to have a real job and it became a relief,1,[26.442397957998764],[26.44240391599851],,,,,,,,1821.6598811669992,1821.6684432919992,1821.6684432919992,1821.6684432919992,1822.4405752919993,1,[0.778537750000396],[0.778540334000354],,,,,p_3,001,2024-03-28_13h09.40.926,speech_rate,2023.2.3,None,2024-03-28 13h11.49.309490 -0700,
,Someday_60_condition.wav,Someday__Someday__Maybe__Unabridged___File_029_of_116_0.wav,Yes I guess you did some kind of television commercial and he saw you in something on Theatre Row I think it was just after he moved in Is that off Broadway or sorry is that Broadway You played two parts a psychiatrist and something else a French housekeeper A cockney maid It was just a two night thing not really even off Broadway very off Broadway I guess Yes that's it,What two parts did the narrator play in a theater production?,A. A psychiatrist and a French housekeeper,B. A lawyer and a judge,C. A doctor and a nurse,D. A singer and a dancer,A. A psychiatrist and a French housekeeper,no,28.84,,,,,0,49,49,49,1863.2708509580007,,,,,,,,,,,,1863.8785706670005,1863.9109649583338,1863.9097447919994,1892.7567536669994,1892.7602982080007,1892.7818062499991,1892.7917457919993,1892.7917457919993,1903.247029541999,off broadway play a cockney made yes,1,[10.463562875000207],[10.46356575000027],,,,,,,,1863.2623032079991,1863.2708509580007,1863.2708509580007,1863.2708509580007,1863.8783777499993,1,[0.6139989999992395],[0.6140015420005511],,,,,p_3,001,2024-03-28_13h09.40.926,speech_rate,2023.2.3,None,2024-03-28 13h11.49.309490 -0700,
,Someday_51_condition-3x.wav,Someday__Someday__Maybe__Unabridged___File_025_of_116_4.wav,And he says Dina pauses as if the next part of the story is particularly hard to tell And he says only two things will happen with this One it's a giant hit and you're thanking me every year at the Emmys Or two they'll make the pilot it won't work it'll never air There's no scenario in between If for some reason they put this on the air and it isn't 100 fantastic he said it'll never last Dina and Leighton say together Then Dina slaps her palm to her forehead as if she still can't believe it,What does Dina do after telling the story?,A. She shakes her head,B. She slaps her palm to her forehead,C. She cries,D. She sits in silence,B. She slaps her palm to her forehead,yes,11.23875,,,,,0,50,50,50,1903.2546428749993,,,,,,,,,,,,1904.0291775000005,1904.0444983746659,1904.0454208329993,1915.2908896249992,1915.2947815419993,1915.306004791999,1915.3151992080002,1915.3151992080002,1931.2488718330005,this will be a hit and she slaps her forehead like she cannot believe it ,1,[15.941185333000249],[15.941188208000312],,,,,,,,1903.2473680000003,1903.2546428749993,1903.2546428749993,1903.2546428749993,1904.028985375,1,[0.7809011669996835],[0.7809038750001491],,,,,p_3,001,2024-03-28_13h09.40.926,speech_rate,2023.2.3,None,2024-03-28 13h11.49.309490 -0700,
,Someday_74_condition-3-5x.wav,Someday__Someday__Maybe__Unabridged___File_035_of_116_2.wav,Barney wears a light blue sport coat and has thick white hair cropped very close to his head The whole place smells like cigar smoke and dust but there's something comforting about it I'm afraid my nervousness is obvious especially when I discover that the only way to sit in the one huge armchair opposite his desk is to sink into it and be swallowed I fight the chair for a minute trying to perch daintily on the edge and then give up and sit back which at least might make me look relaxed Francis Banks Barney Bellows,What is Barney Sparks wearing when the main character meets him?,A. A black tuxedo,B. A light blue sport coat,C. A red sweater,D. A white lab coat,B. A light blue sport coat,no,9.29375,,,,,0,51,51,51,1931.2576059999992,,,,,,,,,,,,1931.8154824169997,1931.831221583667,1931.830930582999,1941.126042124999,1941.1299857499998,1941.1412324169996,1941.1507445000007,1941.1507445000007,1951.833359708,look relaxed,1,[10.69048420800027],[10.690487042000314],,,,,,,,1931.2492237499991,1931.2576059999992,1931.2576059999992,1931.2576059999992,1931.815291249999,1,[0.5640499590008403],[0.5640525420003542],,,,,p_3,001,2024-03-28_13h09.40.926,speech_rate,2023.2.3,None,2024-03-28 13h11.49.309490 -0700,
,Someday_31_condition-3x.wav,Someday__Someday__Maybe__Unabridged___File_017_of_116_3.wav,Yeah and then I have stuff you know with all of my agents too I say hands flapping vaguely in the air Very cool Who are you with I realize I'm too exhausted to continue I'm with it's all in my head ink You're what Oh I get it You're kidding Ha Yes I'm kidding I'm currently between agents currently and formerly between them,What is the narrator's current agent situation?,A. She has one agent,B. She has no agents,C. She has more than two agents,D. She has two agents,B. She has no agents,no,10.1325,,,,,0,52,52,52,1951.8422846249996,,,,,,,,,,,,1952.5498132079993,1952.5655363746666,1952.5654007920002,1962.70223825,1962.7028653329999,1962.7131135830004,1962.7228193749997,1962.7228193749997,1974.784370166999,agents all in my head in pink i get it between agents,1,[12.069600374999936],[12.069603375000952],,,,,,,,1951.8336985000005,1951.8422846249996,1951.8422846249996,1951.8422846249996,1952.5496331670001,1,[0.7139287089994468],[0.7139315420008643],,,,,p_3,001,2024-03-28_13h09.40.926,speech_rate,2023.2.3,None,2024-03-28 13h11.49.309490 -0700,
,Someday_119_condition.wav,Someday__Someday__Maybe__Unabridged___File_053_of_116_1.wav,But when did you start doing this I didn't see any of it in the fridge Yeah no that's the best part You don't have to refrigerate it It comes in a box It's freeze dried in a package and you just take it out and soak it You soak it It sounds weird I know but it's actually very convenient because you can take it anywhere you know on the go Why can't you just eat actual healthy food the kind that doesn't require soaking Well obviously because I can't be trusted to control myself This teaches you portion control,Why does the narrator prefer soaked food?,A. Because it helps with portion control,B. Because it tastes good,C. Becauseit is cheap,D. Because the friend likes it,A. Because it helps with portion control,yes,28.63996875,,,,,0,53,53,53,1974.792095499999,,,,,,,,,,,,1975.8681644169992,1975.9005635413328,1975.8989819580001,2004.5462809580004,2004.5497767079996,2004.5710467499994,2004.5807019170006,2004.5807019170006,2028.9881204579997,soak the dry food that is very convenient you can have it on the go why cant you eat normal food this teaches me portion control,1,[24.415329457999178],[24.415332417000172],,,,,,,,1974.7847079999992,1974.792095499999,1974.792095499999,1974.792095499999,1975.867974875,1,[1.0825425419989188],[1.082545041999765],,,,,p_3,001,2024-03-28_13h09.40.926,speech_rate,2023.2.3,None,2024-03-28 13h11.49.309490 -0700,
,Someday_84_condition-2-5x.wav,Someday__Someday__Maybe__Unabridged___File_038_of_116_0.wav,The offices of absolute artists are on the 32nd floor of a sleek glass high rise building on 56th Street near Fifth Avenue in the middle of countless stores and apartments I could never afford I come to this part of town only once in a while to go to Central Park although I like our park in Brooklyn just as much The streets are wider here and the buildings are much taller than downtown and lots of people are wearing suits and carrying briefcases and crossing the street dangerously in the middle of the block,Where is Absolute Artists' office located?,A. In Brooklyn,B. On Fifth Avenue,C. By Central Park,D. On the 32nd floor of a high rise,D. On the 32nd floor of a high rise,yes,12.80125,,,,,0,54,54,54,2028.9963975829996,,,,,,,,,,,,2032.204676792,2032.2203365416665,2032.223488042,2045.0318941669993,2045.0326165000006,2045.0437015000007,2045.052843042,2045.052843042,2064.6399341670003,parks in brooklyn and new york they are crossing the street danergeously in the middle of the block,1,[19.594534042000305],[19.59453704200132],,,,,,,,2028.9884871249997,2028.9963975829996,2028.9963975829996,2028.9963975829996,2032.2044714170006,1,[3.2138362500008952],[3.2138387499999226],,,,,p_3,001,2024-03-28_13h09.40.926,speech_rate,2023.2.3,None,2024-03-28 13h11.49.309490 -0700,
,Someday_30_condition.wav,Someday__Someday__Maybe__Unabridged___File_017_of_116_2.wav,No he says then he pushes his bottom lip out a little Not tonight sweetheart He looks almost sorry for me as if he's canceling some sort of pre arranged date or I'm five years old and he just told me we can't go to the zoo I resent his assumption that I'm even slightly disappointed that he won't be in class tonight although the truth is I'm inexplicably crushed Me neither Yeah I'm not going to class either because it's funny but I have to pick up some scripts too actually,Why won't the narrator be at the class?,A. She has to pick up some scripts,B. She thinks the class is funny,C. She does't want to go to the zoo,D. She has to go to a party,A. She has to pick up some scripts,no,28.75996875,,,,,0,55,55,55,2064.64909825,,,,,,,,,,,,2065.589955292,2065.6223181663327,2065.6213568330004,2094.3850696249992,2094.387837791999,2094.4092467499995,2094.418690082999,2094.418690082999,2104.625550125,have to pick up some scripts too ,1,[10.21458900000107],[10.2145919579998],,,,,,,,2064.640282167,2064.64909825,2064.64909825,2064.64909825,2065.5897567499997,1,[0.9472157079999306],[0.9472182499994233],,,,,p_3,001,2024-03-28_13h09.40.926,speech_rate,2023.2.3,None,2024-03-28 13h11.49.309490 -0700,
,Someday_85_condition-3-5x.wav,Someday__Someday__Maybe__Unabridged___File_038_of_116_1.wav,He hands me a paper badge with my name printed on it and says Yes it's okay for me to go up The elevator empties out around the 20th floor so I quickly try to use the smoked mirror walls to check my face and hair and outfit I'm wearing my black stretchy turtleneck with my black wool mini skirt black tights and Doc Martens lace up boots And now I can see in the reflection in the elevator mirror that the skirt is too short I try to pull it down but then my sweater isn't long enough and if I pull the skirt down to where it looks better an inch of my stomach shows,What does the narrator realize about her outfit when she checks her reflection?,A. Her turtleneck is too tight,B. Her boots don't match,C. Her skirt is too short,D. Her hair is a mess,C. Her skirt is too short,no,9.39375,,,,,0,56,56,56,2104.632854583,,,,,,,,,,,,2105.2256029170003,2105.241272333666,2105.2400304580005,2114.6360007500007,2114.6388888750007,2114.649008041999,2114.658883832999,2114.658883832999,2131.793927167,i am wearing this skirt and sweater and i pull it down so that my stomach shows,1,[17.143186458000855],[17.14318995800022],,,,,,,,2104.626121083,2104.632854583,2104.632854583,2104.632854583,2105.2254015,1,[0.5985119999986637],[0.5985146249986428],,,,,p_3,001,2024-03-28_13h09.40.926,speech_rate,2023.2.3,None,2024-03-28 13h11.49.309490 -0700,
,Someday_27_condition.wav,Someday__Someday__Maybe__Unabridged___File_016_of_116_0.wav,And maybe we'll go out sometime and maybe we'll fall in love and someday we'll happen to be walking down this very street and he'll say remember that day when we accidentally ran into each other here But none of that can happen if he walks by me on the street today I make my way across 45th Street and hover near a trash can digging in my bag as if I'm looking for something I need to throw out waiting for his light to change Finally I can see him start to walk across the street I look away so he doesn't see me staring at him and when I glance up again I've lost him in the crowd,What is the narrator's hope regarding the person she encounters on the street?,A. To avoid meeting them,B. To have a chance encounter,C. To never see them again,D. To get their phone number,B. To have a chance encounter,no,29.51,,,,,0,57,57,57,2131.8027990829996,,,,,,,,,,,,2132.427172374999,2132.4594996663336,2132.4584634170005,2161.971991208,2161.972722667,2161.9939075,2162.0032102919995,2162.0032102919995,2178.0466610000003,when i look up again i have lost him in the crowd. if i see him today i will not be able to talk to him.,1,[16.05108562500027],[16.051088709000396],,,,,,,,2131.7943035419994,2131.8027990829996,2131.8027990829996,2131.8027990829996,2132.4269798330006,1,[0.6305208329995367],[0.6305240000001504],,,,,p_3,001,2024-03-28_13h09.40.926,speech_rate,2023.2.3,None,2024-03-28 13h11.49.309490 -0700,
,Someday_22_condition-2-5x.wav,Someday__Someday__Maybe__Unabridged___File_013_of_116_1.wav,Want to go with me to that diner on 8th and get a salad in between Salad Oh yeah I'm supposed to eat more salad It just never seems appealing In fact I was already planning to go to that diner on 8th for my usual pre class dinner Grilled cheese french fries and the New York Times crossword puzzle But for some reason I find myself making an excuse I can't I have another you know torture session after this one,What was the narrator already planning to eat at the diner?,A. Grilled cheese and fries,B. Salad,C. Pie,D. Club sandwich,A. Grilled cheese and fries,no,12.32,,,,,0,58,58,58,2178.055849332999,,,,,,,,,,,,2178.7797447499997,2178.7954375836675,2178.799945625,2191.1235392500002,2191.1242463750004,2191.1345595420007,2191.1438401249998,2191.1438401249998,2214.9320650829995,go to the diner and eat salad i am supposed to eat more salad but i cannot because i am going to another torture session after this one,1,[23.795834500000637],[23.795837625000786],,,,,,,,2178.0470354999998,2178.055849332999,2178.055849332999,2178.055849332999,2178.7795496670005,1,[0.7303793749997567],[0.7303819170010684],,,,,p_3,001,2024-03-28_13h09.40.926,speech_rate,2023.2.3,None,2024-03-28 13h11.49.309490 -0700,
,Someday_122_condition-3-5x.wav,Someday__Someday__Maybe__Unabridged___File_054_of_116_2.wav,When I first started watching it was just for a few minutes right after Lisa and before the first commercial break I was more fascinated than interested I would use the show as a kind of acting exercise challenging myself with the hokey dialogue saying the lines out loud to myself just to see if I could make the scenes feel more real than the actors on the show did I wondered if it was the actor's fault that the whole thing seemed so ridiculous or if there's truly nothing you can do to make it less phony given how phony it looks,How does the narrator approch the show?,A. As a truly fascinating show,B. As an acting practice,C. She never watches it,D. As a way to pass some quality time,B. As an acting practice,yes,9.234375,,,,,0,59,59,59,2214.9392454579993,,,,,,,,,,,,2215.930013125,2215.945270249666,2215.9474508330004,2225.192136874999,2225.1945405000006,2225.205213957999,2225.2144865419996,2225.2144865419996,2242.6832533750003,funny nothing seems more weird to me than how it looks,1,[17.47637204199964],[17.476375042000655],,,,,,,,2214.9324209999995,2214.9392454579993,2214.9392454579993,2214.9392454579993,2215.9297945420003,1,[0.9965835000002699],[0.996586125000249],,,,,p_3,001,2024-03-28_13h09.40.926,speech_rate,2023.2.3,None,2024-03-28 13h11.49.309490 -0700,
,Someday_76_condition-2x.wav,Someday__Someday__Maybe__Unabridged___File_035_of_116_4.wav,You're kidding No dear I'm a sucker for a klutz It's where you see what someone is made of My father the great Broadway director Irving Sparks always said anyone can smile on their best day I like to meet a man who can smile on his worst I was his assistant as a younger man just 19 years old sitting in the very last row in the audience of Best Foot Forward when a redheaded chorus girl took a terrible spill,Why was Barney Sparks' father's occupation?,A. He was a doctor,B. He was an actor,C. He was a Broadway director,D. He was an accountant,C. He was a Broadway director,yes,13.105,,,,,0,60,60,60,2242.6919434579995,,,,,,,,,,,,2243.2500887919996,2243.265767416666,2243.2681703750004,2256.3772026669994,2256.3810267499994,2256.3921119999995,2256.401423833,2256.401423833,2272.7854925419997,i like a man who can smile on their worst day they took a spill,1,[16.39158170799965],[16.391584499999226],,,,,,,,2242.6835667079995,2242.6919434579995,2242.6919434579995,2242.6919434579995,2243.2498950829995,1,[0.564354624999396],[0.5643571249984234],,,,,p_3,001,2024-03-28_13h09.40.926,speech_rate,2023.2.3,None,2024-03-28 13h11.49.309490 -0700,
,Someday_149_condition-4x.wav,Someday__Someday__Maybe__Unabridged___File_098_of_116_1.wav,"The minute James got back into town, any doubts I might have had about us evaporated. He was tanned from the sun, proof of his days spent shooting in the desert and the sight of him made me melt. I'm confused by his message though. We discussed going to the premiere of his movie together. You're sending a car, I say, when he picks up. Like a rental car? No, like a car with a driver to pick you up. Like a limousine? Well, no, that'll probably just be a town car, a sedan. Is that okay?",How will the narrator go to the premiere?,A. By calling a cab,B. By renting a car,C. She will be picked up by a driver,D. She will be picked up by Dan,C. She will be picked up by a driver,yes,7.84875,,,,,0,61,61,61,2272.794463832999,,,,,,,,,,,,2273.301542125,2273.317208666666,2273.3167610420005,2281.190648374999,2281.1701693329996,2281.1812559169994,2281.190648374999,2281.190648374999,2291.803032374999,rental car no more like a limosine,1,[10.619988125001328],[10.619991083000059],,,,,,,,2272.785877958,2272.794463832999,2272.794463832999,2272.794463832999,2273.301341791999,1,[0.513316541999302],[0.5133191669992812],,,,,p_3,001,2024-03-28_13h09.40.926,speech_rate,2023.2.3,None,2024-03-28 13h11.49.309490 -0700,
,Someday_62_condition-2-5x.wav,Someday__Someday__Maybe__Unabridged___File_030_of_116_1.wav,Maybe he'd think I'd played the part dozens of times That would teach the anonymous voice to respect me At the Old Horse Theater in Princeton New Jersey he said Did I detect a hint of sarcasm in his voice OK thanks There was a silence on the other end Any other details Well it's none of my business but I'd never heard of it So I looked it up and that theater doesn't seem to exist,Why did the he look up the Old Horse Theater?,A. To have some information about it,B. To apply for a role there,C. To learn about its upcoming shows,"D. To plan a trip to Princeton, New Jersey",A. To have some information about it,no,12.578125,,,,,0,62,62,62,2291.8102067500004,,,,,,,,,,,,2292.536402874999,2292.5520487496674,2292.554651458,2305.151562957999,2305.131793167,2305.1421570420007,2305.151562957999,2305.151562957999,2328.2211789579997,talking to an anonymous voice and looking up theatres and they do not seem to exist in new jersey,1,[23.077331708998827],[23.07733508399906],,,,,,,,2291.803415417,2291.8102067500004,2291.8102067500004,2291.8102067500004,2292.5362006670002,1,[0.7319866249999905],[0.7319892089999485],,,,,p_3,001,2024-03-28_13h09.40.926,speech_rate,2023.2.3,None,2024-03-28 13h11.49.309490 -0700,
,Someday_82_condition-2-5x.wav,Someday__Someday__Maybe__Unabridged___File_037_of_116_3.wav,The end Huh I say baffled The end is supposed to show that he's come to terms with who he is It's supposed to show he's been healed Huh I say again I know Fellini can be abstract Dan says eyes gleaming Watch it with me from the beginning sometime I will I smile back at him noticing for the first time the flecks of green in his brown eyes The room seems too dark and quiet suddenly,What color are Dan's eyes,A. Blue with green flecks,B. Deep brown,C. Brown with green flecks,D. Dark green with brown flecks,C. Brown with green flecks,yes,13.654375,,,,,0,63,63,63,2328.230104291999,,,,,,,,,,,,2328.905228292,2328.9208814166673,2328.9234861669993,2342.572385792,2342.5838477079997,2342.5949051669995,2342.604686167,2342.604686167,2360.657095417,i notice the flecks of green in his blue eyes and the room seems quite suddenly,1,[18.060428958000557],[18.06043200000022],,,,,,,,2328.221496541999,2328.230104291999,2328.230104291999,2328.230104291999,2328.9050309169997,1,[0.6812647499991726],[0.6812673329986865],,,,,p_3,001,2024-03-28_13h09.40.926,speech_rate,2023.2.3,None,2024-03-28 13h11.49.309490 -0700,
,Someday_120_condition-4x.wav,Someday__Someday__Maybe__Unabridged___File_053_of_116_2.wav,Everything you need is in each packet so it takes the guesswork out of dieting You sound like you've joined a cult What happens when you have to go back to the real world the world where you have to think for yourself Hopefully I'll be so weak and frail that food will have lost its appeal entirely Great plan And who's on Lisa today I'm pretty sure today's show is Women Who Wish Their Best Friends Would Stop Judging Them Har har I'm going to work now Do you want me to take the TV cord with me,"What topic is discussed on Lisa's show, in the narrator's joke?",A. Weight loss programs,B. The challenges of dieting,C. Women's relationships with their best friends,D. The appeal of joining a cult,C. Women's relationships with their best friends,no,6.9425,,,,,0,64,64,64,2360.666145707999,,,,,,,,,,,,2361.2232971249996,2361.238923291667,2361.2354153750002,2368.1833731669994,2368.1878784170003,2368.1991115420005,2368.208796499999,2368.208796499999,2378.9581841670006,joining a cult haha do you want to come with me,1,[10.7573929579994],[10.757396541999697],,,,,,,,2360.6574589579996,2360.666145707999,2360.666145707999,2360.666145707999,2361.223116916999,1,[0.5635327920008422],[0.5635353329998907],,,,,p_3,001,2024-03-28_13h09.40.926,speech_rate,2023.2.3,None,2024-03-28 13h11.49.309490 -0700,
,Someday_26_condition-2x.wav,Someday__Someday__Maybe__Unabridged___File_015_of_116_2.wav,My stomach lurches The action between each line is the exact opposite of what the line is After kids are my number one priority it says rushing mom gets daughter to school just as the bell is ringing After the thing about always having time for friends looks at answering machine guiltily and decides to screen the call At the end the harried housewife stuffs an impossible amount of dirty clothes in the washer which miraculously come out clean and she gets a huge hug from her approving husband,What is the narrator's reaction to the script she's reading?,A. Her stomach lurches,B. She finds it amusing,C. She feels inspired,D. She is moved to tears,A. Her stomach lurches,no,13.94496875,,,,,0,65,65,65,2378.965365667,,,,,,,,,,,,2379.624350708,2379.6399854996675,2379.6436934169997,2393.6110347920003,2393.5904952500005,2393.6015878750004,2393.6110347920003,2393.6110347920003,2428.3441910420006,saying and then doing the opposite saying that her friends are top priority but then looking guilty at the answer machine adoring huband children,1,[34.74081129200022],[34.74081429200123],,,,,,,,2378.9585622079994,2378.965365667,2378.965365667,2378.965365667,2379.624168958,1,[0.6647953749998123],[0.6647978749988397],,,,,p_3,001,2024-03-28_13h09.40.926,speech_rate,2023.2.3,None,2024-03-28 13h11.49.309490 -0700,
,Someday_107_condition-3x.wav,Someday__Someday__Maybe__Unabridged___File_048_of_116_0.wav,One more thing from last night Yeah Apparently We're not supposed to wash our jeans anymore the wardrobe lady told me We are only supposed to dry clean them What That's insane Yep We're supposed to buy jeans really tight as tight as we can squeeze into so all the fat gets compressed into as little space as possible Then we want the fat compression level to stay that way for as long as it can right Well washing jeans makes them softer and baggier and lessens the fat compression quotient,Why are people advised not to wash their jeans anymore?,A. To save water and be more environmentally friendly,B. To maintain the tight fit and fat compression,C. To reduce laundry expenses,D. To prevent jeans from fading,B. To maintain the tight fit and fat compression,yes,10.875,,,,,0,66,66,66,2428.353172666999,,,,,,,,,,,,2428.927231874999,2428.942850249667,2428.943978457999,2439.8210487920005,2439.824521291999,2439.835408125,2439.844917167,2439.844917167,2464.0630855830004,supposed to dry clean jeans not wash them because they are supposed to be as tight as possible to squeeze the fat,1,[24.225851958999556],[24.225855124999725],,,,,,,,2428.3445672920006,2428.353172666999,2428.353172666999,2428.353172666999,2428.9270517080004,1,[0.5803056670010847],[0.5803082090005773],,,,,p_3,001,2024-03-28_13h09.40.926,speech_rate,2023.2.3,None,2024-03-28 13h11.49.309490 -0700,
,Someday_116_condition-2-5x.wav,Someday__Someday__Maybe__Unabridged___File_052_of_116_0.wav,Yes I noticed that this may come as a shock to you But many studies have shown there's at least a slight nutritional difference between spinach that's rotting in the crisper drawer and spinach That's ingested into the body Details I scoff I give up she says heading for the kitchen more coffee I Stare down at my bagel which seems to I me warily back Maybe Jane's right Maybe I need more education I wonder what Penelope schlotzky eats on Sunday Probably not bagels,What does the narrator stare down at?,A. A bagel,B. Some spinach,C. A cup of coffee,D. A cup of tea,A. A bagel,no,12.525625,,,,,0,67,67,67,2464.0717099579997,,,,,,,,,,,,2464.9795305000007,2464.995137291666,2464.997776417,2477.5224157499997,2477.5265538330004,2477.5377693329992,2477.5471980830007,2477.5471980830007,2500.481751333,spinach in the cripser draw what does penelope eat on sundays probably not bagels,1,[22.942222083998786],[22.94222516699847],,,,,,,,2464.063425541999,2464.0717099579997,2464.0717099579997,2464.0717099579997,2464.9793486670005,1,[0.9134813330001634],[0.9134839580001426],,,,,p_3,001,2024-03-28_13h09.40.926,speech_rate,2023.2.3,None,2024-03-28 13h11.49.309490 -0700,
,Someday_88_condition-3x.wav,Someday__Someday__Maybe__Unabridged___File_039_of_116_1.wav,It always seems like something that I should like more than I do though some flavors taste like dirty bath water Or maybe I don't like it on principle because I know it's supposed to be healthy If it was filled with calories and fat would I like it more and why oh why am I thinking about this right now This is hardly the time to make a ruling on such a difficult subject What no scotch I say and I can immediately feel my face flush red I put my hand on my hip in what I hope is a jaunty manner in an attempt to cover for the fact that I'm trying too hard,Why does the narrator say she puts her hand on her hip,A. To hide that she is trying too hard,B. To look attractive,C. To rest her hand,D. To be serious,A. To hide that she is trying too hard,no,10.8075,,,,,0,68,68,68,2500.488914583,,,,,,,,,,,,2501.114719542,2501.1302962916675,2501.1310360419993,2511.9419142080005,2511.9454301669994,2511.9557918749997,2511.965223333,2511.965223333,2523.083107332999,jaunty manner to cover up the fact that i am trying too hard,1,[11.125591874999373],[11.125594958000875],,,,,,,,2500.482111416999,2500.488914583,2500.488914583,2500.488914583,2501.114541249999,1,[0.6315797499992186],[0.6315825419987959],,,,,p_3,001,2024-03-28_13h09.40.926,speech_rate,2023.2.3,None,2024-03-28 13h11.49.309490 -0700,
,Someday_56_condition.wav,Someday__Someday__Maybe__Unabridged___File_027_of_116_4.wav,I'm not sure how to explain it to Everett in a way I think she'll understand What do I say Oh fine thanks Today was great but it doesn't take away my general fear that I'm not now nor will I ever be good enough Oh fine thanks There's a silence as we both sip our tea My whole family just went to see the Phantom of the Opera Everett says Have you seen it No I haven't Oh it's wonderful So magical There's a giant chandelier that appears right out of the sky,What are Everett and the narrator drinking while talking to each other?,A. Coffee,B. Wine,C. Tea,D. Beer,C. Tea,yes,29.31996875,,,,,0,69,69,69,2523.0918342080004,,,,,,,,,,,,2523.566239124999,2523.598475458334,2523.5973369999992,2552.9271145420007,2552.9327885000002,2552.954267583,2552.964135832999,2552.964135832999,2571.302275958,went to see phantom of the opera have you seen it there is a giant chandeleer that appears out of the sky,1,[18.346237833000487],[18.34624066700053],,,,,,,,2523.083483208,2523.0918342080004,2523.0918342080004,2523.0918342080004,2523.5660566669994,1,[0.48014216699993995],[0.4801449170008709],,,,,p_3,001,2024-03-28_13h09.40.926,speech_rate,2023.2.3,None,2024-03-28 13h11.49.309490 -0700,
,Someday_117_condition-3x.wav,Someday__Someday__Maybe__Unabridged___File_052_of_116_1.wav,Maybe bagels are my problem Although one bagel doesn't seem like a lot of food I decide I will finish the bagel but not eat anything the rest of the day Except maybe a salad for dinner or soup No soup has hidden stuff in it Yes I'm fairly certain soup is another food that seems innocent but is actually fattening Chicken broth that only has like seven calories Can I get chicken broth at the deli Where can I get chicken broth You don't need to change anything,What conclusion does the narrator reach about soup?,A. Soup is always low in calories,B. Soup is a hidden source of calories,C. Soup is the healthiest food option,D. Soup is not a good choice for dinner,B. Soup is a hidden source of calories,no,10.17,,,,,0,70,70,70,2571.311111625,,,,,,,,,,,,2800.482475625,2800.497948916666,2800.499740833,2810.6753569579996,2810.680366167,2810.6915693329993,2810.7019308750005,2810.7019308750005,2849.5684467499996,i will have a bagel but then later i will have salad or soup but is soup okay or its one of those things that seems healthy but is actually fattening. or maybe chicken broth because thats only got seven calories,1,[38.87500587500108],[38.87501225000051],,,,,,,,2571.302623207999,2571.311111625,2571.311111625,2571.311111625,2800.4822457499995,1,[229.1773859169989],[229.17738850000023],,,,,p_3,001,2024-03-28_13h09.40.926,speech_rate,2023.2.3,None,2024-03-28 13h11.49.309490 -0700,
