index,wav_file,old_name,segment_text,question,C1,C2,C3,C4,C_correct,summary,duration,training.thisRepN,training.thisTrialN,training.thisN,training.thisIndex,sum_true.thisRepN,sum_true.thisTrialN,sum_true.thisN,sum_true.thisIndex,dummy_loop.thisRepN,dummy_loop.thisTrialN,dummy_loop.thisN,dummy_loop.thisIndex,experiment.thisRepN,experiment.thisTrialN,experiment.thisN,experiment.thisIndex,sum_true_exp.thisRepN,sum_true_exp.thisTrialN,sum_true_exp.thisN,sum_true_exp.thisIndex,dummy_loop_exp.thisRepN,dummy_loop_exp.thisTrialN,dummy_loop_exp.thisN,dummy_loop_exp.thisIndex,thisRow.t,notes,Instructions.started,Instructions.stopped,Start_Segment_Train.started,Play_train.started,Trial_counter_train.started,text_5.started,Start_Segment_Train.stopped,Play_train.numClicks,Play_train.timesOn,Play_train.timesOff,Training_Segment.started,Experimen_audio.started,polygon.started,polygon.stopped,Training_Segment.stopped,Rating.started,slider.started,text_3.started,button_2.started,Rating.stopped,slider.response,slider.rt,button_2.numClicks,button_2.timesOn,button_2.timesOff,Start_Summary.started,text_2.started,Start_Summary.stopped,summary_button.numClicks,summary_button.timesOn,summary_button.timesOff,skip_button.numClicks,skip_button.timesOn,skip_button.timesOff,Summary.started,textbox.started,Summary.stopped,textbox.text,Multiple_Choice_2.started,Multiple_Choice_2.stopped,A.numClicks,A.timesOn,A.timesOff,B.numClicks,B.timesOn,B.timesOff,C.numClicks,C.timesOn,C.timesOff,D.numClicks,D.timesOn,D.timesOff,Start_Exp.started,Start_exp.started,Start.started,Start_Exp.stopped,Start.numClicks,Start.timesOn,Start.timesOff,Start_Segment.started,Play.started,Trial_counter.started,text_6.started,Start_Segment.stopped,Play.numClicks,Play.timesOn,Play.timesOff,Start_Sum_Exp.started,text_4.started,summary_button_exp.started,skip_button_exp.started,Start_Sum_Exp.stopped,summary_button_exp.numClicks,summary_button_exp.timesOn,summary_button_exp.timesOff,skip_button_exp.numClicks,skip_button_exp.timesOn,skip_button_exp.timesOff,textbox.stopped,participant,session,date,expName,psychopyVersion,frameRate,expStart,
1,Someday_trial_condition.wav,Someday__Someday__Maybe__Unabridged___File_069_of_116_3.wav,It's a gut feeling You can't nickname him He's a real person not a joke person You don't have to tell me Only a real person would try to shake hands with my best friend's foot Jane you're not explaining it right It was very romantic And thankfully our steaming bowl of bright yellow melted cheese with flecks of green chilies arrives Listen she says dipping a chip into the creamy depths You're the one with the brand new personality I'm still the same old Jane,"What does the narrator have, according to Jane?",A) A new recipe for dipping sauce,B) A new personality,C) A new restaurant suggestion,D) A new pair of shoes,B) A new personality,yes,30,0,0,0,0,0,0,0,0,0,0,0,0,,,,,,,,,,,,,68.70353791599996,,0.011956249999911961,16.97061083299991,16.979626999999937,16.995661958000028,16.995661958000028,16.995661958000028,19.485848082999837,1,[2.4982635829999253],[2.498266457999989],19.48624299999983,19.53541966599987,19.531670790999897,49.549041750000015,49.520077249999986,49.541337333,49.759119374999955,49.759119374999955,51.44596424999986,59.90885158299989,10.0,6.6623709160001,1,[8.475582666000037],[8.475585707999926],59.91116495799997,59.91854295799999,68.67231545799996,1,[8.75992958300003],[8.759933250000131],0,,,68.67301562499983,68.70353791599996,83.682114791,flexible green depths romantic new personality Jane,,,,,,,,,,,,,,,,,,,,,,,,,,,,,,,,,,,,,,,,,,p_4,001,2024-03-12_10h25.09.680,speech_rate,2023.2.3,None,2024-03-12 10h31.13.024803 -0700,
1,Someday_trial_condition.wav,Someday__Someday__Maybe__Unabridged___File_069_of_116_3.wav,It's a gut feeling You can't nickname him He's a real person not a joke person You don't have to tell me Only a real person would try to shake hands with my best friend's foot Jane you're not explaining it right It was very romantic And thankfully our steaming bowl of bright yellow melted cheese with flecks of green chilies arrives Listen she says dipping a chip into the creamy depths You're the one with the brand new personality I'm still the same old Jane,"What does the narrator have, according to Jane?",A) A new recipe for dipping sauce,B) A new personality,C) A new restaurant suggestion,D) A new pair of shoes,B) A new personality,yes,30,0,0,0,0,0,0,0,0,,,,,,,,,,,,,,,,,,,,,,,,,,,,,,,,,,,,,,,,,,,,,,,,,,,,,,,,,,,,,,,,,,,,,,,,,,,,,,,,,,,,,,,,,,,,,,,,,,p_4,001,2024-03-12_10h25.09.680,speech_rate,2023.2.3,None,2024-03-12 10h31.13.024803 -0700,
1,Someday_trial_condition.wav,Someday__Someday__Maybe__Unabridged___File_069_of_116_3.wav,It's a gut feeling You can't nickname him He's a real person not a joke person You don't have to tell me Only a real person would try to shake hands with my best friend's foot Jane you're not explaining it right It was very romantic And thankfully our steaming bowl of bright yellow melted cheese with flecks of green chilies arrives Listen she says dipping a chip into the creamy depths You're the one with the brand new personality I'm still the same old Jane,"What does the narrator have, according to Jane?",A) A new recipe for dipping sauce,B) A new personality,C) A new restaurant suggestion,D) A new pair of shoes,B) A new personality,yes,30,0,0,0,0,,,,,,,,,,,,,,,,,,,,,,,,,,,,,,,,,,,,,,,,,,,,,,,,,,,,,,,,,,,,,83.68232820799994,88.03542429100003,0,,,1,4.334842875000049,4.3348456249998435,0,,,0,,,,,,,,,,,,,,,,,,,,,,,,,,,,,,p_4,001,2024-03-12_10h25.09.680,speech_rate,2023.2.3,None,2024-03-12 10h31.13.024803 -0700,
2,Someday_trial_condition-4x.wav,Someday__Someday__Maybe__Unabridged___File_103_of_116_1.wav,Isn't halfway where two people usually meet Well in general maybe But tonight this is sort of a big deal for me It's my night I'm not sure you you don't think I get it Well no I mean how could you I'm having trouble making sense of this conversation James is speaking with authority but there's something wrong Something feels so wrong somehow I don't care about waving and smiling and having my picture taken with him,"How does James speak, according to the narrator?",A) With compassion,B) With grief,C) With hesitation,D) With authority,D) With authority,yes,7.5,0,1,1,1,0,0,0,0,0,0,0,0,,,,,,,,,,,,,104.58323695799982,,,,88.03616820799994,88.04826312499995,88.04826312499995,88.04826312499995,90.63759133299982,1,[2.5981703749998815],[2.598173124999903],90.63779833299986,90.65344124966647,90.65149895799982,98.15750570799992,98.13921399999981,98.14978224999982,98.37798762499983,98.37798762499983,101.13372883299985,103.57177383299995,3.9416666666666664,2.959449624999934,1,[2.447387875000004],[2.4473902499998985],103.57225154100001,103.58218099999999,104.55742149999992,1,[0.9844759590000649],[0.9844785420000335],0,,,104.55813695799998,104.58323695799982,119.56749116599985,something feels so wrong now i mean how could you ,,,,,,,,,,,,,,,,,,,,,,,,,,,,,,,,,,,,,,,,,,p_4,001,2024-03-12_10h25.09.680,speech_rate,2023.2.3,None,2024-03-12 10h31.13.024803 -0700,
2,Someday_trial_condition-4x.wav,Someday__Someday__Maybe__Unabridged___File_103_of_116_1.wav,Isn't halfway where two people usually meet Well in general maybe But tonight this is sort of a big deal for me It's my night I'm not sure you you don't think I get it Well no I mean how could you I'm having trouble making sense of this conversation James is speaking with authority but there's something wrong Something feels so wrong somehow I don't care about waving and smiling and having my picture taken with him,"How does James speak, according to the narrator?",A) With compassion,B) With grief,C) With hesitation,D) With authority,D) With authority,yes,7.5,0,1,1,1,0,0,0,0,,,,,,,,,,,,,,,,,,,,,,,,,,,,,,,,,,,,,,,,,,,,,,,,,,,,,,,,,,,,,,,,,,,,,,,,,,,,,,,,,,,,,,,,,,,,,,,,,,p_4,001,2024-03-12_10h25.09.680,speech_rate,2023.2.3,None,2024-03-12 10h31.13.024803 -0700,
2,Someday_trial_condition-4x.wav,Someday__Someday__Maybe__Unabridged___File_103_of_116_1.wav,Isn't halfway where two people usually meet Well in general maybe But tonight this is sort of a big deal for me It's my night I'm not sure you you don't think I get it Well no I mean how could you I'm having trouble making sense of this conversation James is speaking with authority but there's something wrong Something feels so wrong somehow I don't care about waving and smiling and having my picture taken with him,"How does James speak, according to the narrator?",A) With compassion,B) With grief,C) With hesitation,D) With authority,D) With authority,yes,7.5,0,1,1,1,,,,,,,,,,,,,,,,,,,,,,,,,,,,,,,,,,,,,,,,,,,,,,,,,,,,,,,,,,,,,119.5676753329999,127.10832995800001,1,7.531095874999892,7.531098250000014,0,,,0,,,0,,,,,,,,,,,,,,,,,,,,,,,,,,,,,,p_4,001,2024-03-12_10h25.09.680,speech_rate,2023.2.3,None,2024-03-12 10h31.13.024803 -0700,
,Someday_94_condition-2-5x.wav,Someday__Someday__Maybe__Unabridged___File_041_of_116_1.wav,He doesn't say anything so I feel obligated to keep going It's as if I'm not driving this train anymore I'm just holding on trying not to crash completely I've always loved the theater I say Thank God It isn't original but it's TRUE at least My dad would take me when I was a kid to whatever little show was playing in our town in Connecticut and we'd also see most of what was in New Haven and sometimes we'd come into the city and it wasn't just theater It was ballet and music and modern dance too I pause,What is the narrator's childhood connection to the theater?,A. She used to perform in school plays,B. Her father would take her to various shows,C. She always dreamed of becoming an actor,D. She was part of a local theater group,B. Her father would take her to various shows,no,13.094375,,,,,,,,,,,,,0,0,0,0,,,,,,,,,193.2393050830001,,,,,,,,,,,,195.86247408300005,195.89499958333323,195.88377979100005,208.97289662499998,208.99053008300007,209.00175991600008,209.23888937499987,209.23888937499987,211.69469304099994,216.10318504099996,9.016666666666666,6.201268499999969,1,[4.417422249999618],[4.41742504099966],,,,,,,,,,,,,,216.1039551660001,220.6269729999999,0,,,1,4.511240583000017,4.511243583000123,0,,,0,,,127.10873645799984,127.116727416,127.116727416,193.08872829099982,1,[65.97927704199992],[65.9792796669999],193.22879083299995,193.2393050830001,193.2393050830001,193.2393050830001,195.86209491599993,1,[2.6297386660003212],[2.6297410410002158],,,,,,,,,,,,,p_4,001,2024-03-12_10h25.09.680,speech_rate,2023.2.3,None,2024-03-12 10h31.13.024803 -0700,
,Someday_35_condition-4x.wav,Someday__Someday__Maybe__Unabridged___File_020_of_116_0.wav,Who put that there Oh No is that what I said Yes that was it I have no idea why it doesn't even make sense Who put that there How stupid I just couldn't think of anything else They laughed though I think they laughed Maybe they gasped in horror No they definitely laughed when I said that They gasped when I fell that's what it was Was it a gasp of disgust were they merely expressing concern for my safety I can't remember,What does the narrator wonder about the audience's reaction?,A. Whether they laughed or gasped,B. Whether they cried or screamed,C. Whether they left the play,D. Whether they were distracted,A. Whether they laughed or gasped,no,7.3625,,,,,,,,,,,,,0,1,1,1,,,,,,,,,220.63979166599984,,,,,,,,,,,,223.28202558299972,223.29808449966666,223.29535729100007,230.657553,230.66237858299974,230.6736797499998,230.878206375,230.878206375,240.49009208300004,241.36954008299972,5.441666666666666,9.788582916999985,1,[0.892627082999752],[0.892629333000059],,,,,,,,,,,,,,241.36992633299997,251.08184600000004,0,,,0,,,1,9.703154499999982,9.703156957999909,0,,,,,,,,,,220.62813612499986,220.63979166599984,220.63979166599984,220.63979166599984,223.28183083299973,1,[2.652142208999976],[2.6521447919999446],,,,,,,,,,,,,p_4,001,2024-03-12_10h25.09.680,speech_rate,2023.2.3,None,2024-03-12 10h31.13.024803 -0700,
,Someday_83_condition-3-5x.wav,Someday__Someday__Maybe__Unabridged___File_037_of_116_4.wav,I sound odd to myself as if I'm playing the part of a professional actress who has meetings all the time and is sort of blasé about them I loved Barney Sparks I want to tell Dan but I'm suspicious of anything that seems too easy I'm not sure why I can't say that now and not sure why I didn't jump at the chance to say yes in Barney's office It feels like I'm an actor in an Italian movie from the 60s saying the placeholder lines into the camera waiting for the real ones that come later,What is the narrator suspicious of?,A. Things that take too long,B. Things that are hard to do,C. Things that seem controversial,D. Things that seem too easy,D. Things that seem too easy,yes,9.071875,,,,,,,,,,,,,0,2,2,2,0,0,0,0,0,0,0,0,268.64379195799984,,,,,,,,,,,,254.08190158299976,254.09791283266648,254.09627945800003,263.1759104160001,263.17689500000006,263.19923233300005,263.40182537500004,263.40182537500004,265.97466829099994,266.754644958,5.0,2.7456570839999586,1,[0.7928338330002589],[0.7928361250001217],,,,,,,,,,268.63448279099975,268.64379195799984,283.6275554159997,actress from the 60s waiting for the camera barney's office,,,,,,,,,,,,,,,,,,,,,,251.0823802079999,251.09074812500012,251.09074812500012,251.09074812500012,254.08171025000001,1,[2.998934916000053],[2.9989375830000427],266.75516508300007,266.7625265409997,266.7625265409997,266.7625265409997,268.63373108299993,1,[1.877290333000019],[1.8772932500000934],0,,,283.64752904099987,p_4,001,2024-03-12_10h25.09.680,speech_rate,2023.2.3,None,2024-03-12 10h31.13.024803 -0700,
,Someday_83_condition-3-5x.wav,Someday__Someday__Maybe__Unabridged___File_037_of_116_4.wav,I sound odd to myself as if I'm playing the part of a professional actress who has meetings all the time and is sort of blasé about them I loved Barney Sparks I want to tell Dan but I'm suspicious of anything that seems too easy I'm not sure why I can't say that now and not sure why I didn't jump at the chance to say yes in Barney's office It feels like I'm an actor in an Italian movie from the 60s saying the placeholder lines into the camera waiting for the real ones that come later,What is the narrator suspicious of?,A. Things that take too long,B. Things that are hard to do,C. Things that seem controversial,D. Things that seem too easy,D. Things that seem too easy,yes,9.071875,,,,,,,,,,,,,0,2,2,2,0,0,0,0,,,,,,,,,,,,,,,,,,,,,,,,,,,,,,,,,,,,,,,,,,,,,,,,,,,,,,,,,,,,,,,,,,,,,,,,,,,,,,,,,,,,,,p_4,001,2024-03-12_10h25.09.680,speech_rate,2023.2.3,None,2024-03-12 10h31.13.024803 -0700,
,Someday_83_condition-3-5x.wav,Someday__Someday__Maybe__Unabridged___File_037_of_116_4.wav,I sound odd to myself as if I'm playing the part of a professional actress who has meetings all the time and is sort of blasé about them I loved Barney Sparks I want to tell Dan but I'm suspicious of anything that seems too easy I'm not sure why I can't say that now and not sure why I didn't jump at the chance to say yes in Barney's office It feels like I'm an actor in an Italian movie from the 60s saying the placeholder lines into the camera waiting for the real ones that come later,What is the narrator suspicious of?,A. Things that take too long,B. Things that are hard to do,C. Things that seem controversial,D. Things that seem too easy,D. Things that seem too easy,yes,9.071875,,,,,,,,,,,,,0,2,2,2,,,,,,,,,,,,,,,,,,,,,,,,,,,,,,,,,,,,,,,,,,,,,,,,,283.62778612500006,292.01397229099985,1,8.376239499999883,8.376242124999862,0,,,0,,,0,,,,,,,,,,,,,,,,,,,,,,,,,,,,,,p_4,001,2024-03-12_10h25.09.680,speech_rate,2023.2.3,None,2024-03-12 10h31.13.024803 -0700,
,Someday_88_condition-3-5x.wav,Someday__Someday__Maybe__Unabridged___File_039_of_116_1.wav,It always seems like something that I should like more than I do though some flavors taste like dirty bath water Or maybe I don't like it on principle because I know it's supposed to be healthy If it was filled with calories and fat would I like it more and why oh why am I thinking about this right now This is hardly the time to make a ruling on such a difficult subject What no scotch I say and I can immediately feel my face flush red I put my hand on my hip in what I hope is a jaunty manner in an attempt to cover for the fact that I'm trying too hard,Why does the narrator say she puts her hand on her hip,A. To hide that she is trying too hard,B. To look attractive,C. To rest her hand,D. To be serious,A. To hide that she is trying too hard,yes,9.00625,,,,,,,,,,,,,0,3,3,3,0,0,0,0,0,0,0,0,307.5445361249999,,,,,,,,,,,,294.1845025829998,294.2005492916667,294.1993742909999,303.200552583,303.21248237500004,303.2237285410001,303.4646723329997,303.4646723329997,305.137945166,306.1064140829999,4.966666666666667,1.8871811669996532,1,[0.9777847909999764],[0.9777869580002516],,,,,,,,,,307.5196579999997,307.5445361249999,322.52897429099994,trying too hard calories hands on my hips scotch,,,,,,,,,,,,,,,,,,,,,,292.01457116599977,292.0271769579999,292.0271769579999,292.0271769579999,294.1843120409999,1,[2.1681067920003443],[2.1681094170003234],306.10688195800003,306.1125603329997,306.1125603329997,306.1125603329997,307.5188507079997,1,[1.4112402499999916],[1.4112428749999708],0,,,,p_4,001,2024-03-12_10h25.09.680,speech_rate,2023.2.3,None,2024-03-12 10h31.13.024803 -0700,
,Someday_88_condition-3-5x.wav,Someday__Someday__Maybe__Unabridged___File_039_of_116_1.wav,It always seems like something that I should like more than I do though some flavors taste like dirty bath water Or maybe I don't like it on principle because I know it's supposed to be healthy If it was filled with calories and fat would I like it more and why oh why am I thinking about this right now This is hardly the time to make a ruling on such a difficult subject What no scotch I say and I can immediately feel my face flush red I put my hand on my hip in what I hope is a jaunty manner in an attempt to cover for the fact that I'm trying too hard,Why does the narrator say she puts her hand on her hip,A. To hide that she is trying too hard,B. To look attractive,C. To rest her hand,D. To be serious,A. To hide that she is trying too hard,yes,9.00625,,,,,,,,,,,,,0,3,3,3,0,0,0,0,,,,,,,,,,,,,,,,,,,,,,,,,,,,,,,,,,,,,,,,,,,,,,,,,,,,,,,,,,,,,,,,,,,,,,,,,,,,,,,,,,,,,,p_4,001,2024-03-12_10h25.09.680,speech_rate,2023.2.3,None,2024-03-12 10h31.13.024803 -0700,
,Someday_88_condition-3-5x.wav,Someday__Someday__Maybe__Unabridged___File_039_of_116_1.wav,It always seems like something that I should like more than I do though some flavors taste like dirty bath water Or maybe I don't like it on principle because I know it's supposed to be healthy If it was filled with calories and fat would I like it more and why oh why am I thinking about this right now This is hardly the time to make a ruling on such a difficult subject What no scotch I say and I can immediately feel my face flush red I put my hand on my hip in what I hope is a jaunty manner in an attempt to cover for the fact that I'm trying too hard,Why does the narrator say she puts her hand on her hip,A. To hide that she is trying too hard,B. To look attractive,C. To rest her hand,D. To be serious,A. To hide that she is trying too hard,yes,9.00625,,,,,,,,,,,,,0,3,3,3,,,,,,,,,,,,,,,,,,,,,,,,,,,,,,,,,,,,,,,,,,,,,,,,,322.52917049999996,328.7393216659998,1,6.201068874999692,6.201071499999671,0,,,0,,,0,,,,,,,,,,,,,,,,,,,,,,,,,,,,,,p_4,001,2024-03-12_10h25.09.680,speech_rate,2023.2.3,None,2024-03-12 10h31.13.024803 -0700,
,Someday_72_condition-3x.wav,Someday__Someday__Maybe__Unabridged___File_034_of_116_0.wav,Okay Yeah thanks I Say the exact same lines over and over again until they lose all meaning Someone with a stopwatch times me and for about four hours I'm either speeding up or slowing down by increments of one second to at most Takes that are 28 seconds strangely feel longer than the ones that are 26 Smile more smile less tilt my head talk to the camera like it's my best friend raise inflection on the name of the product But don't sell it not too much not too little have fun with it,What does the narrator do repeatedly?,A. Speak the same lines,B. Adjust the camera,C. Change outfits,D. Time herself with a stopwatch,A. Speak the same lines,yes,10.90125,,,,,,,,,,,,,0,4,4,4,0,0,0,0,0,0,0,0,348.0633802080001,,,,,,,,,,,,331.369531416,331.38552516666664,331.38840608300006,342.29719483300005,342.29838033299984,342.3096365409997,342.54942066600006,342.54942066600006,343.67943379100006,344.55877387500004,9.975,1.3411827909999374,1,[0.8923699590000069],[0.8923722919998909],,,,,,,,,,348.038576208,348.0633802080001,363.0480205409999,not too much not too little raise my head smile for the camera,,,,,,,,,,,,,,,,,,,,,,328.7398713749999,328.74742775000004,328.74742775000004,328.74742775000004,331.36934087500003,1,[2.6273435840003003],[2.6273495420000472],344.5592657500001,344.564860166,344.564860166,344.564860166,348.0378572909999,1,[3.477870208999775],[3.477872749999733],0,,,,p_4,001,2024-03-12_10h25.09.680,speech_rate,2023.2.3,None,2024-03-12 10h31.13.024803 -0700,
,Someday_72_condition-3x.wav,Someday__Someday__Maybe__Unabridged___File_034_of_116_0.wav,Okay Yeah thanks I Say the exact same lines over and over again until they lose all meaning Someone with a stopwatch times me and for about four hours I'm either speeding up or slowing down by increments of one second to at most Takes that are 28 seconds strangely feel longer than the ones that are 26 Smile more smile less tilt my head talk to the camera like it's my best friend raise inflection on the name of the product But don't sell it not too much not too little have fun with it,What does the narrator do repeatedly?,A. Speak the same lines,B. Adjust the camera,C. Change outfits,D. Time herself with a stopwatch,A. Speak the same lines,yes,10.90125,,,,,,,,,,,,,0,4,4,4,0,0,0,0,,,,,,,,,,,,,,,,,,,,,,,,,,,,,,,,,,,,,,,,,,,,,,,,,,,,,,,,,,,,,,,,,,,,,,,,,,,,,,,,,,,,,,p_4,001,2024-03-12_10h25.09.680,speech_rate,2023.2.3,None,2024-03-12 10h31.13.024803 -0700,
,Someday_72_condition-3x.wav,Someday__Someday__Maybe__Unabridged___File_034_of_116_0.wav,Okay Yeah thanks I Say the exact same lines over and over again until they lose all meaning Someone with a stopwatch times me and for about four hours I'm either speeding up or slowing down by increments of one second to at most Takes that are 28 seconds strangely feel longer than the ones that are 26 Smile more smile less tilt my head talk to the camera like it's my best friend raise inflection on the name of the product But don't sell it not too much not too little have fun with it,What does the narrator do repeatedly?,A. Speak the same lines,B. Adjust the camera,C. Change outfits,D. Time herself with a stopwatch,A. Speak the same lines,yes,10.90125,,,,,,,,,,,,,0,4,4,4,,,,,,,,,,,,,,,,,,,,,,,,,,,,,,,,,,,,,,,,,,,,,,,,,363.0482071659999,367.20874645799995,1,4.1505059169999186,4.150508416999855,0,,,0,,,0,,,,,,,,,,,,,,,,,,,,,,,,,,,,,,p_4,001,2024-03-12_10h25.09.680,speech_rate,2023.2.3,None,2024-03-12 10h31.13.024803 -0700,
,Someday_85_condition.wav,Someday__Someday__Maybe__Unabridged___File_038_of_116_1.wav,He hands me a paper badge with my name printed on it and says Yes it's okay for me to go up The elevator empties out around the 20th floor so I quickly try to use the smoked mirror walls to check my face and hair and outfit I'm wearing my black stretchy turtleneck with my black wool mini skirt black tights and Doc Martens lace up boots And now I can see in the reflection in the elevator mirror that the skirt is too short I try to pull it down but then my sweater isn't long enough and if I pull the skirt down to where it looks better an inch of my stomach shows,What does the narrator realize about her outfit when she checks her reflection?,A. Her turtleneck is too tight,B. Her boots don't match,C. Her skirt is too short,D. Her hair is a mess,C. Her skirt is too short,yes,30.01,,,,,,,,,,,,,0,5,5,5,0,0,0,0,0,0,0,0,406.1519278749997,,,,,,,,,,,,371.40550595800005,371.45487054100005,371.44714858299994,401.45029395799975,401.46791575,401.4893220409999,401.7263961660001,401.7263961660001,403.38231291600005,404.31254554099996,10,1.853364916999908,1,[0.9549689589998707],[0.9549712920002094],,,,,,,,,,406.1420908330001,406.1519278749997,421.1355468749998,black skirt pull it down my stomach shows elevator stretchy turtleneck,,,,,,,,,,,,,,,,,,,,,,367.20930391599995,367.21583091599996,367.21583091599996,367.21583091599996,371.40530604100013,1,[4.195570833000147],[4.195573416000116],404.3130275409999,404.31834445799996,404.31834445799996,404.31834445799996,406.14124025,1,[1.8274574580000262],[1.8274602910000795],0,,,421.15592987499986,p_4,001,2024-03-12_10h25.09.680,speech_rate,2023.2.3,None,2024-03-12 10h31.13.024803 -0700,
,Someday_85_condition.wav,Someday__Someday__Maybe__Unabridged___File_038_of_116_1.wav,He hands me a paper badge with my name printed on it and says Yes it's okay for me to go up The elevator empties out around the 20th floor so I quickly try to use the smoked mirror walls to check my face and hair and outfit I'm wearing my black stretchy turtleneck with my black wool mini skirt black tights and Doc Martens lace up boots And now I can see in the reflection in the elevator mirror that the skirt is too short I try to pull it down but then my sweater isn't long enough and if I pull the skirt down to where it looks better an inch of my stomach shows,What does the narrator realize about her outfit when she checks her reflection?,A. Her turtleneck is too tight,B. Her boots don't match,C. Her skirt is too short,D. Her hair is a mess,C. Her skirt is too short,yes,30.01,,,,,,,,,,,,,0,5,5,5,0,0,0,0,,,,,,,,,,,,,,,,,,,,,,,,,,,,,,,,,,,,,,,,,,,,,,,,,,,,,,,,,,,,,,,,,,,,,,,,,,,,,,,,,,,,,,p_4,001,2024-03-12_10h25.09.680,speech_rate,2023.2.3,None,2024-03-12 10h31.13.024803 -0700,
,Someday_85_condition.wav,Someday__Someday__Maybe__Unabridged___File_038_of_116_1.wav,He hands me a paper badge with my name printed on it and says Yes it's okay for me to go up The elevator empties out around the 20th floor so I quickly try to use the smoked mirror walls to check my face and hair and outfit I'm wearing my black stretchy turtleneck with my black wool mini skirt black tights and Doc Martens lace up boots And now I can see in the reflection in the elevator mirror that the skirt is too short I try to pull it down but then my sweater isn't long enough and if I pull the skirt down to where it looks better an inch of my stomach shows,What does the narrator realize about her outfit when she checks her reflection?,A. Her turtleneck is too tight,B. Her boots don't match,C. Her skirt is too short,D. Her hair is a mess,C. Her skirt is too short,yes,30.01,,,,,,,,,,,,,0,5,5,5,,,,,,,,,,,,,,,,,,,,,,,,,,,,,,,,,,,,,,,,,,,,,,,,,421.13577079100014,430.30937129099993,0,,,0,,,1,9.16337916700013,9.16338204199974,0,,,,,,,,,,,,,,,,,,,,,,,,,,,,,,p_4,001,2024-03-12_10h25.09.680,speech_rate,2023.2.3,None,2024-03-12 10h31.13.024803 -0700,
,Someday_142_condition-2x.wav,Someday__Someday__Maybe__Unabridged___File_088_of_116_2.wav,"Metro North is on strike. So I can't take the train I have no wallet. No driver's license. I can't pick up the rental car Two nights ago on the way home from James's I arrived at our front door Just as our downstairs neighbor was leaving and Dan and Jane were home with the door to our place already open So it wasn't until I went to get bagels the next morning that I realized in my rush to leave I forgot my purse at James's apartment. I left him a message, but he must have already taken off for Los Angeles",Where did the narrator forget her purse?,A. In the subway,B. In James's apartment,C. In the acting school,D. In the cab,B. In James's apartment,yes,13.62353125,,,,,,,,,,,,,0,6,6,6,0,0,0,0,0,0,0,0,449.67064279099986,,,,,,,,,,,,432.5081772079998,432.5237922076665,432.52859050000006,446.1397918749999,446.1542186249999,446.16544666599975,446.4059818749997,446.4059818749997,447.81277054099974,448.7261430829999,9.991666666666665,1.620443042000261,1,[0.9225805420001052],[0.9225828329999786],,,,,,,,,,449.66155658299976,449.67064279099986,464.65460512499976,i left him a message but he must have already taken off for los angeles i left my purse james,,,,,,,,,,,,,,,,,,,,,,430.3098488329997,430.3166913750001,430.3166913750001,430.3166913750001,432.5079649579998,1,[2.1963889170001494],[2.196392082999864],448.7266333329999,448.7356373329999,448.7356373329999,448.7356373329999,449.66072799999984,1,[0.9333696670000791],[0.9333727500002169],0,,,464.67364562500006,p_4,001,2024-03-12_10h25.09.680,speech_rate,2023.2.3,None,2024-03-12 10h31.13.024803 -0700,
,Someday_142_condition-2x.wav,Someday__Someday__Maybe__Unabridged___File_088_of_116_2.wav,"Metro North is on strike. So I can't take the train I have no wallet. No driver's license. I can't pick up the rental car Two nights ago on the way home from James's I arrived at our front door Just as our downstairs neighbor was leaving and Dan and Jane were home with the door to our place already open So it wasn't until I went to get bagels the next morning that I realized in my rush to leave I forgot my purse at James's apartment. I left him a message, but he must have already taken off for Los Angeles",Where did the narrator forget her purse?,A. In the subway,B. In James's apartment,C. In the acting school,D. In the cab,B. In James's apartment,yes,13.62353125,,,,,,,,,,,,,0,6,6,6,0,0,0,0,,,,,,,,,,,,,,,,,,,,,,,,,,,,,,,,,,,,,,,,,,,,,,,,,,,,,,,,,,,,,,,,,,,,,,,,,,,,,,,,,,,,,,p_4,001,2024-03-12_10h25.09.680,speech_rate,2023.2.3,None,2024-03-12 10h31.13.024803 -0700,
,Someday_142_condition-2x.wav,Someday__Someday__Maybe__Unabridged___File_088_of_116_2.wav,"Metro North is on strike. So I can't take the train I have no wallet. No driver's license. I can't pick up the rental car Two nights ago on the way home from James's I arrived at our front door Just as our downstairs neighbor was leaving and Dan and Jane were home with the door to our place already open So it wasn't until I went to get bagels the next morning that I realized in my rush to leave I forgot my purse at James's apartment. I left him a message, but he must have already taken off for Los Angeles",Where did the narrator forget her purse?,A. In the subway,B. In James's apartment,C. In the acting school,D. In the cab,B. In James's apartment,yes,13.62353125,,,,,,,,,,,,,0,6,6,6,,,,,,,,,,,,,,,,,,,,,,,,,,,,,,,,,,,,,,,,,,,,,,,,,464.654858291,467.49794170799987,0,,,1,2.833855792000122,2.8338585420001436,0,,,0,,,,,,,,,,,,,,,,,,,,,,,,,,,,,,p_4,001,2024-03-12_10h25.09.680,speech_rate,2023.2.3,None,2024-03-12 10h31.13.024803 -0700,
,Someday_80_condition-2x.wav,Someday__Someday__Maybe__Unabridged___File_037_of_116_1.wav,I'm happy someone's up happy not to come home to a darkened house after the long day I've had Very good he says looking impressed It's not that hard to recognize You must have rented it five times already this month I know he says smiling sheepishly I hope I'm not driving you guys crazy Jane was watching it for a while but gave up and went to sleep She said the last time she sat through the whole thing she dreamt she was eaten by her pillow It's almost over Want to watch the end with me,What did Jane see in her dream the last time she saw the movie?,A. That is was flying with a penguin,B. That she was sailing during a storm,C. That she was chased by a pirate,D. That she was eaten by her pillow,D. That she was eaten by her pillow,no,14.685,,,,,,,,,,,,,0,7,7,7,,,,,,,,,467.50577620800004,,,,,,,,,,,,469.94640683299986,469.979076124333,469.96829383299973,484.6417605409997,484.67324979099976,484.69407487499984,484.9304697079997,484.9304697079997,486.54868099999976,487.250518416,9.966666666666667,1.827607917000023,1,[0.7109037079999325],[0.7109063329999117],,,,,,,,,,,,,,487.25095999999985,490.929801625,0,,,0,,,0,,,1,3.6698621670002467,3.6698648340002364,,,,,,,,467.49851095799977,467.50577620800004,467.50577620800004,467.50577620800004,469.94620662499983,1,[2.44549837500017],[2.44550104200016],,,,,,,,,,,,,p_4,001,2024-03-12_10h25.09.680,speech_rate,2023.2.3,None,2024-03-12 10h31.13.024803 -0700,
,Someday_74_condition-4x.wav,Someday__Someday__Maybe__Unabridged___File_035_of_116_2.wav,Barney wears a light blue sport coat and has thick white hair cropped very close to his head The whole place smells like cigar smoke and dust but there's something comforting about it I'm afraid my nervousness is obvious especially when I discover that the only way to sit in the one huge armchair opposite his desk is to sink into it and be swallowed I fight the chair for a minute trying to perch daintily on the edge and then give up and sit back which at least might make me look relaxed Francis Banks Barney Bellows,What is Barney Sparks wearing when the main character meets him?,A. A black tuxedo,B. A light blue sport coat,C. A red sweater,D. A white lab coat,B. A light blue sport coat,yes,7.435,,,,,,,,,,,,,0,8,8,8,0,0,0,0,0,0,0,0,511.47429187499984,,,,,,,,,,,,496.6108818749999,496.62648162466644,496.6244379579998,504.0563085409999,504.07444633299974,504.0856856659998,504.29399058299987,504.29399058299987,506.04012812500014,510.1689395829999,2.05,5.393276332999903,1,[4.138032416999977],[4.138034667000284],,,,,,,,,,511.4650892079999,511.47429187499984,526.4584089579998,he swallowed,,,,,,,,,,,,,,,,,,,,,,490.9302600410001,490.93743533299994,490.93743533299994,490.93743533299994,496.61067583299973,1,[5.6799857910000355],[5.679988332999983],510.16943312500007,510.1751801659998,510.1751801659998,510.1751801659998,511.46424454099997,1,[1.2940722500002266],[1.2940748340001846],0,,,526.477947333,p_4,001,2024-03-12_10h25.09.680,speech_rate,2023.2.3,None,2024-03-12 10h31.13.024803 -0700,
,Someday_74_condition-4x.wav,Someday__Someday__Maybe__Unabridged___File_035_of_116_2.wav,Barney wears a light blue sport coat and has thick white hair cropped very close to his head The whole place smells like cigar smoke and dust but there's something comforting about it I'm afraid my nervousness is obvious especially when I discover that the only way to sit in the one huge armchair opposite his desk is to sink into it and be swallowed I fight the chair for a minute trying to perch daintily on the edge and then give up and sit back which at least might make me look relaxed Francis Banks Barney Bellows,What is Barney Sparks wearing when the main character meets him?,A. A black tuxedo,B. A light blue sport coat,C. A red sweater,D. A white lab coat,B. A light blue sport coat,yes,7.435,,,,,,,,,,,,,0,8,8,8,0,0,0,0,,,,,,,,,,,,,,,,,,,,,,,,,,,,,,,,,,,,,,,,,,,,,,,,,,,,,,,,,,,,,,,,,,,,,,,,,,,,,,,,,,,,,,p_4,001,2024-03-12_10h25.09.680,speech_rate,2023.2.3,None,2024-03-12 10h31.13.024803 -0700,
,Someday_74_condition-4x.wav,Someday__Someday__Maybe__Unabridged___File_035_of_116_2.wav,Barney wears a light blue sport coat and has thick white hair cropped very close to his head The whole place smells like cigar smoke and dust but there's something comforting about it I'm afraid my nervousness is obvious especially when I discover that the only way to sit in the one huge armchair opposite his desk is to sink into it and be swallowed I fight the chair for a minute trying to perch daintily on the edge and then give up and sit back which at least might make me look relaxed Francis Banks Barney Bellows,What is Barney Sparks wearing when the main character meets him?,A. A black tuxedo,B. A light blue sport coat,C. A red sweater,D. A white lab coat,B. A light blue sport coat,yes,7.435,,,,,,,,,,,,,0,8,8,8,,,,,,,,,,,,,,,,,,,,,,,,,,,,,,,,,,,,,,,,,,,,,,,,,526.458696958,531.8351886249998,0,,,1,5.366945875000056,5.366948665999644,0,,,0,,,,,,,,,,,,,,,,,,,,,,,,,,,,,,p_4,001,2024-03-12_10h25.09.680,speech_rate,2023.2.3,None,2024-03-12 10h31.13.024803 -0700,
,Someday_138_condition-2x.wav,Someday__Someday__Maybe__Unabridged___File_080_of_116_1.wav,"The page is practically touching his glasses, so I can't exactly see his reaction. Dan, I say, what do you think? I mean, the script isn't too terrible, right? I was distracted by having to read it out loud, Dan says, a bit grumpy. But you're not the actor we're paying attention to in this scene, Dan, Jane tells him. Then, trying to help, she says, come on, be a pal. Say something nice to Franny about her new job. Dan thinks for a second, then says, the dialogue isn't bad, although too many sentences start with well.",Why is Dan grumpy?,A. Because he is hungry,B. Because he doesn't like reading,C. Because he has to read out loud,D. Because he doesn't have enough time to help the narrator,C. Because he has to read out loud,no,16.36340625,,,,,,,,,,,,,0,9,9,9,,,,,,,,,531.8436020409999,,,,,,,,,,,,534.1664343329999,534.1990175413334,534.1896180829999,550.5590157910001,550.5644555829999,550.586758375,550.8293695829998,550.8293695829998,554.2851739160001,555.2493314580001,9.041666666666668,3.672653916999934,1,[0.9734327920000396],[0.9734355000000505],,,,,,,,,,,,,,555.2497614999997,573.3804802499999,0,,,0,,,1,18.12209491600015,18.12210095799992,0,,,,,,,,,,531.8357295000001,531.8436020409999,531.8436020409999,531.8436020409999,534.1662406249998,1,[2.328111875000104],[2.328114583000115],,,,,,,,,,,,,p_4,001,2024-03-12_10h25.09.680,speech_rate,2023.2.3,None,2024-03-12 10h31.13.024803 -0700,
,Someday_14_condition-4x.wav,Someday__Someday__Maybe__Unabridged___File_009_of_116_2.wav,Jane grew up in Greenwich Village in Manhattan and has style Where I struggle to match a black shirt with black pants she throws on jeans and a t shirt and nine chunky cuffs on one wrist with an air that says so I dare you to not find this cool She shops at Century 21 and Boltons and second hand stores and somehow makes it all look expensive Wait Jane Levine you are not just getting home are you I ask peeking into one of the brown bags Can they do that to you,Where did Jane grow up in?,A. Williamsburg,B. Greenwich Village,C. SoHo,D. Queens,B. Greenwich Village,no,7.04,,,,,,,,,,,,,0,10,10,10,,,,,,,,,573.393181375,,,,,,,,,,,,575.2024753749997,575.2183722076668,575.2158987499997,582.2497503330001,582.262100083,582.2733745830001,582.480959083,582.480959083,585.3038584159999,587.0671695000001,1.9416666666666667,4.156000500000118,1,[1.772495500000332],[1.7724977500001842],,,,,,,,,,,,,,587.067611041,590.6276801250001,1,3.552026249999926,3.5520288749999054,0,,,0,,,0,,,,,,,,,,573.3810894580001,573.393181375,573.393181375,573.393181375,575.2022812499999,1,[1.8188237909998861],[1.8188269160000345],,,,,,,,,,,,,p_4,001,2024-03-12_10h25.09.680,speech_rate,2023.2.3,None,2024-03-12 10h31.13.024803 -0700,
,Someday_73_condition-2x.wav,Someday__Someday__Maybe__Unabridged___File_035_of_116_1.wav,It's four flights up to Barney's office I'm puffing by the time I make it to the top There's no secretary sitting at the desk in the little front room Hello I say to the emptiness Back here dear comes a loud and raspy voice There's a desk with a window behind it and bookshelves on either side which are stacked to the ceiling with scripts and old playbills The titles are written in Sharpie on the edge of the pages so they can be read when stacked face to face and the block print is bold but shaky,What are the stacked objects at Barney Sparks' office?,A. Scripts,B. Paychecks,C. Menus,D. Photos,A. Scripts,no,14.67,,,,,,,,,,,,,0,11,11,11,,,,,,,,,590.6337962079997,,,,,,,,,,,,591.951439291,591.9841181663332,591.9747619159998,606.6457137909997,606.6640189999998,606.6848059579997,606.8880288749997,606.8880288749997,608.1959937910001,609.1872045,9.033333333333333,1.4867821670000012,1,[1.0003045000003112],[1.0003071250002904],,,,,,,,,,,,,,609.187641166,612.5984597500001,1,3.4027234169998337,3.4027261249998446,0,,,0,,,0,,,,,,,,,,590.628203791,590.6337962079997,590.6337962079997,590.6337962079997,591.951247208,1,[1.3226062920002732],[1.322608959000263],,,,,,,,,,,,,p_4,001,2024-03-12_10h25.09.680,speech_rate,2023.2.3,None,2024-03-12 10h31.13.024803 -0700,
,Someday_53_condition.wav,Someday__Someday__Maybe__Unabridged___File_026_of_116_1.wav,It can be dangerous to take the subway all the way to Brooklyn this late I should take a cab she's right but I'm too embarrassed to tell her I only have about 8 in cash on me and probably less than 20 in my bank account so I can't even go to a cash machine I'll get tips and a tiny paycheck at my shift at the club tomorrow night which I'll take directly to the check cashing place on the skeevy part of Fifth Avenue in Brooklyn which will charge me almost a quarter of the check to turn it into immediate cash but I can't wait the five to seven days for the bank to clear it or the electric bill will bounce,Why is the narrator embarrassed to take a cab?,A. She doesn't have enough cash,B. She doesn't want to spend money,C. She prefers the subway,D. She doesn't know how to hail a cab,A. She doesn't have enough cash,no,29.43,,,,,,,,,,,,,0,12,12,12,,,,,,,,,612.6119335409999,,,,,,,,,,,,614.8547059160001,614.887377333333,614.8893629579998,644.314555083,644.3191939160001,644.3404637079998,644.5519949579998,644.5519949579998,645.9480197909998,646.6922102909998,10,1.5826750830001401,1,[0.7536889170000904],[0.7536914590000379],,,,,,,,,,,,,,646.692671708,670.0097048329999,1,23.308648833000007,23.308651457999986,0,,,0,,,0,,,,,,,,,,612.5989965409999,612.6119335409999,612.6119335409999,612.6119335409999,614.8545032500001,1,[2.253525125000124],[2.253527791000124],,,,,,,,,,,,,p_4,001,2024-03-12_10h25.09.680,speech_rate,2023.2.3,None,2024-03-12 10h31.13.024803 -0700,
,Someday_114_condition-2-5x.wav,Someday__Someday__Maybe__Unabridged___File_051_of_116_0.wav,You know in general for show business I think that's why I'm not getting any calls from the agency What do you think is the right way to look You know more like these girls on still nursing I gesture toward the television where a buxom blonde in a short skirt and open doctor's coat is struggling to reattach the IV of an elderly male patient by straddling his hospital bed accidentally smothering him with her cleavage The studio audience screams with laughter,What TV show does the narrator reference in their conversation about appearances?,A. A cooking show,B. A crime show,C. A sitcom called "Still Nursing",D. A reality show,C. A sitcom called "Still Nursing",yes,12.5475,,,,,,,,,,,,,0,13,13,13,0,0,0,0,0,0,0,0,688.8180453750001,,,,,,,,,,,,672.4044065829999,672.4199629166667,672.4217829579998,685.0004671659999,684.9712894999998,684.9926927910001,685.2018377079999,685.2018377079999,686.9167984999999,687.7624689159998,9.9,1.899522917000013,1,[0.8551053329997558],[0.8551076659996397],,,,,,,,,,688.808490291,688.8180453750001,703.8016346250001,studio audience screams with laughter nurse tv buxom blonde reattach iv cleavage,,,,,,,,,,,,,,,,,,,,,,670.0102825829999,670.0183001249998,670.0183001249998,670.0183001249998,672.4041767909998,1,[2.3915553330002695],[2.391558167000312],687.7629472909998,687.7689828329999,687.7689828329999,687.7689828329999,688.807611708,1,[1.0439099160003025],[1.0439123330002076],0,,,703.8217038749999,p_4,001,2024-03-12_10h25.09.680,speech_rate,2023.2.3,None,2024-03-12 10h31.13.024803 -0700,
,Someday_114_condition-2-5x.wav,Someday__Someday__Maybe__Unabridged___File_051_of_116_0.wav,You know in general for show business I think that's why I'm not getting any calls from the agency What do you think is the right way to look You know more like these girls on still nursing I gesture toward the television where a buxom blonde in a short skirt and open doctor's coat is struggling to reattach the IV of an elderly male patient by straddling his hospital bed accidentally smothering him with her cleavage The studio audience screams with laughter,What TV show does the narrator reference in their conversation about appearances?,A. A cooking show,B. A crime show,C. A sitcom called "Still Nursing",D. A reality show,C. A sitcom called "Still Nursing",yes,12.5475,,,,,,,,,,,,,0,13,13,13,0,0,0,0,,,,,,,,,,,,,,,,,,,,,,,,,,,,,,,,,,,,,,,,,,,,,,,,,,,,,,,,,,,,,,,,,,,,,,,,,,,,,,,,,,,,,,p_4,001,2024-03-12_10h25.09.680,speech_rate,2023.2.3,None,2024-03-12 10h31.13.024803 -0700,
,Someday_114_condition-2-5x.wav,Someday__Someday__Maybe__Unabridged___File_051_of_116_0.wav,You know in general for show business I think that's why I'm not getting any calls from the agency What do you think is the right way to look You know more like these girls on still nursing I gesture toward the television where a buxom blonde in a short skirt and open doctor's coat is struggling to reattach the IV of an elderly male patient by straddling his hospital bed accidentally smothering him with her cleavage The studio audience screams with laughter,What TV show does the narrator reference in their conversation about appearances?,A. A cooking show,B. A crime show,C. A sitcom called "Still Nursing",D. A reality show,C. A sitcom called "Still Nursing",yes,12.5475,,,,,,,,,,,,,0,13,13,13,,,,,,,,,,,,,,,,,,,,,,,,,,,,,,,,,,,,,,,,,,,,,,,,,703.801862583,710.4849669579999,0,,,0,,,1,6.672584416999598,6.672587332999683,0,,,,,,,,,,,,,,,,,,,,,,,,,,,,,,p_4,001,2024-03-12_10h25.09.680,speech_rate,2023.2.3,None,2024-03-12 10h31.13.024803 -0700,
,Someday_68_condition-2-5x.wav,Someday__Someday__Maybe__Unabridged___File_033_of_116_2.wav,I'm looking into a giant mirror on a wall of mirrors each framed by dozens of fluorescent light bulbs In the blinding light my face looks nothing like the face I have in Brooklyn I wonder if this is my real face or if the face I have in Brooklyn is the real one and what my queen's face might look like Um no not that I can think of I tell her I wonder if I will over time develop preferences and what they might be in regard to my face being made up,How does the narrator describe the mirror she is looking at?,A. Framed by fluorescent lights,B. Vintage,C. Broken,D. Not big enough,A. Framed by fluorescent lights,yes,13.04625,,,,,,,,,,,,,0,14,14,14,0,0,0,0,0,0,0,0,731.1869590829997,,,,,,,,,,,,714.5583709160001,714.5743697496666,714.5765266660001,727.6438945,727.6247758330001,727.6359766249998,727.8714532499998,727.8714532499998,729.3367236660001,730.0636757500001,9.908333333333333,1.6756429170000047,1,[0.7367119170003207],[0.7367142090001835],,,,,,,,,,731.1772644160001,731.1869590829997,746.1706790409999,face brooklyn queens wall of mirrors being made up i wonder,,,,,,,,,,,,,,,,,,,,,,710.4855029579999,710.4910971659997,710.4910971659997,710.4910971659997,714.5581784159999,1,[4.072218291999889],[4.072220916999868],730.0641339159997,730.0700180409999,730.0700180409999,730.0700180409999,731.1765329579998,1,[1.1116393749998679],[1.1116418329997941],0,,,746.1896225,p_4,001,2024-03-12_10h25.09.680,speech_rate,2023.2.3,None,2024-03-12 10h31.13.024803 -0700,
,Someday_68_condition-2-5x.wav,Someday__Someday__Maybe__Unabridged___File_033_of_116_2.wav,I'm looking into a giant mirror on a wall of mirrors each framed by dozens of fluorescent light bulbs In the blinding light my face looks nothing like the face I have in Brooklyn I wonder if this is my real face or if the face I have in Brooklyn is the real one and what my queen's face might look like Um no not that I can think of I tell her I wonder if I will over time develop preferences and what they might be in regard to my face being made up,How does the narrator describe the mirror she is looking at?,A. Framed by fluorescent lights,B. Vintage,C. Broken,D. Not big enough,A. Framed by fluorescent lights,yes,13.04625,,,,,,,,,,,,,0,14,14,14,0,0,0,0,,,,,,,,,,,,,,,,,,,,,,,,,,,,,,,,,,,,,,,,,,,,,,,,,,,,,,,,,,,,,,,,,,,,,,,,,,,,,,,,,,,,,,p_4,001,2024-03-12_10h25.09.680,speech_rate,2023.2.3,None,2024-03-12 10h31.13.024803 -0700,
,Someday_68_condition-2-5x.wav,Someday__Someday__Maybe__Unabridged___File_033_of_116_2.wav,I'm looking into a giant mirror on a wall of mirrors each framed by dozens of fluorescent light bulbs In the blinding light my face looks nothing like the face I have in Brooklyn I wonder if this is my real face or if the face I have in Brooklyn is the real one and what my queen's face might look like Um no not that I can think of I tell her I wonder if I will over time develop preferences and what they might be in regard to my face being made up,How does the narrator describe the mirror she is looking at?,A. Framed by fluorescent lights,B. Vintage,C. Broken,D. Not big enough,A. Framed by fluorescent lights,yes,13.04625,,,,,,,,,,,,,0,14,14,14,,,,,,,,,,,,,,,,,,,,,,,,,,,,,,,,,,,,,,,,,,,,,,,,,746.1709177079997,749.4299652499999,1,3.24960800000008,3.249610583000049,0,,,0,,,0,,,,,,,,,,,,,,,,,,,,,,,,,,,,,,p_4,001,2024-03-12_10h25.09.680,speech_rate,2023.2.3,None,2024-03-12 10h31.13.024803 -0700,
,Someday_61_condition.wav,Someday__Someday__Maybe__Unabridged___File_030_of_116_0.wav,He said we all we all is not asking you out but why leave a message just to we all me I think he's asking me out in his own way We all means I asked for your number because I think you're cute but I'm seeing someone So I'm trying to pretend to myself that I just asked for your number to be friends with you And I'm asking if you want to have a drink sometime with me and my girlfriend which will never But it helps me feel like less of a shithead for asking for your number in the first place You've been we all'd my friend,What does the term "we all'd" imply in the context given by the narrator?,A. The person is directly asking the narrator out on a date,B. The person left a message to genuinely make a new friend,C. The person is extending an invitation for a group outing,D. The person might be expressing interest under the guise of friendship despite being in a relationship,D. The person might be expressing interest under the guise of friendship despite being in a relationship,no,30.38003125,,,,,,,,,,,,,0,15,15,15,,,,,,,,,749.4377500410001,,,,,,,,,,,,753.1772337500001,753.2265382079997,753.2187455829999,783.605722625,783.6083812500001,783.6306816249999,783.8724265410001,783.8724265410001,785.1159789580001,785.9682667080001,9.966666666666667,1.4576358750000509,1,[0.8617428330003349],[0.8617451660002189],,,,,,,,,,,,,,785.968717791,793.8331573749997,0,,,0,,,0,,,1,7.852736249999907,7.852739333000045,,,,,,,,749.430509708,749.4377500410001,749.4377500410001,749.4377500410001,753.177049208,1,[3.744989667000027],[3.7449923330000274],,,,,,,,,,,,,p_4,001,2024-03-12_10h25.09.680,speech_rate,2023.2.3,None,2024-03-12 10h31.13.024803 -0700,
,Someday_105_condition-3x.wav,Someday__Someday__Maybe__Unabridged___File_047_of_116_1.wav,Like he was a person but from another planet or something But the longer I work for him the more I see he's just this guy this very unusually gorgeous extremely muscly guy who's sort of funny and sort of smart but who's a regular person who married the girl he dated in high school and doesn't seem to know how he got here He seems totally baffled by his success and he's always asking my opinion about things like his wardrobe or whatever And I'm wondering if he's forgotten I'm just the PA on my very first movie ever,What is the narrator's perception of the person she works for?,A. He's like a person from another planet,B. He's extremely muscly and smart,C. He's very confident and self-assured,D. He's just a regular person baffled by his success,D. He's just a regular person baffled by his success,no,11.1975,,,,,,,,,,,,,0,16,16,16,,,,,,,,,793.8413102909999,,,,,,,,,,,,796.96078425,796.9736523326667,796.9762757079998,808.1739023750001,808.176829125,808.1880339999998,808.3944651249999,808.3944651249999,810.023892875,811.1459915,9.008333333333333,1.8110044999998536,1,[1.1314111669998965],[1.1314136249998228],,,,,,,,,,,,,,811.1464121250001,816.1411036659997,0,,,1,4.984880292000071,4.984883374999754,0,,,0,,,,,,,,,,793.833733083,793.8413102909999,793.8413102909999,793.8413102909999,796.9605141249999,1,[3.124816500000179],[3.1248258750001696],,,,,,,,,,,,,p_4,001,2024-03-12_10h25.09.680,speech_rate,2023.2.3,None,2024-03-12 10h31.13.024803 -0700,
,Someday_84_condition.wav,Someday__Someday__Maybe__Unabridged___File_038_of_116_0.wav,The offices of absolute artists are on the 32nd floor of a sleek glass high rise building on 56th Street near Fifth Avenue in the middle of countless stores and apartments I could never afford I come to this part of town only once in a while to go to Central Park although I like our park in Brooklyn just as much The streets are wider here and the buildings are much taller than downtown and lots of people are wearing suits and carrying briefcases and crossing the street dangerously in the middle of the block,Where is Absolute Artists' office located?,A. In Brooklyn,B. On Fifth Avenue,C. By Central Park,D. On the 32nd floor of a high rise,D. On the 32nd floor of a high rise,yes,29.21,,,,,,,,,,,,,0,17,17,17,0,0,0,0,0,0,0,0,863.028243791,,,,,,,,,,,,829.99869425,830.0313300833332,830.030397083,859.2324323749999,859.2448702080001,859.266279083,859.468387208,859.468387208,860.9587407499998,861.7820069579998,9.941666666666666,1.6647124999999505,1,[0.8363047910002024],[0.8363070830000652],,,,,,,,,,863.0186723749998,863.028243791,878.011888041,crossing the street dangerously in the middle of the block wearing suits park brooklyn,,,,,,,,,,,,,,,,,,,,,,816.141655291,816.147427208,816.147427208,816.147427208,829.9985052500001,1,[13.856383207999897],[13.856385832999877],861.7824972499998,861.7918157499998,861.7918157499998,861.7918157499998,863.0177509159998,1,[1.2345062500003223],[1.234508709000238],0,,,878.0324084579997,p_4,001,2024-03-12_10h25.09.680,speech_rate,2023.2.3,None,2024-03-12 10h31.13.024803 -0700,
,Someday_84_condition.wav,Someday__Someday__Maybe__Unabridged___File_038_of_116_0.wav,The offices of absolute artists are on the 32nd floor of a sleek glass high rise building on 56th Street near Fifth Avenue in the middle of countless stores and apartments I could never afford I come to this part of town only once in a while to go to Central Park although I like our park in Brooklyn just as much The streets are wider here and the buildings are much taller than downtown and lots of people are wearing suits and carrying briefcases and crossing the street dangerously in the middle of the block,Where is Absolute Artists' office located?,A. In Brooklyn,B. On Fifth Avenue,C. By Central Park,D. On the 32nd floor of a high rise,D. On the 32nd floor of a high rise,yes,29.21,,,,,,,,,,,,,0,17,17,17,0,0,0,0,,,,,,,,,,,,,,,,,,,,,,,,,,,,,,,,,,,,,,,,,,,,,,,,,,,,,,,,,,,,,,,,,,,,,,,,,,,,,,,,,,,,,,p_4,001,2024-03-12_10h25.09.680,speech_rate,2023.2.3,None,2024-03-12 10h31.13.024803 -0700,
,Someday_84_condition.wav,Someday__Someday__Maybe__Unabridged___File_038_of_116_0.wav,The offices of absolute artists are on the 32nd floor of a sleek glass high rise building on 56th Street near Fifth Avenue in the middle of countless stores and apartments I could never afford I come to this part of town only once in a while to go to Central Park although I like our park in Brooklyn just as much The streets are wider here and the buildings are much taller than downtown and lots of people are wearing suits and carrying briefcases and crossing the street dangerously in the middle of the block,Where is Absolute Artists' office located?,A. In Brooklyn,B. On Fifth Avenue,C. By Central Park,D. On the 32nd floor of a high rise,D. On the 32nd floor of a high rise,yes,29.21,,,,,,,,,,,,,0,17,17,17,,,,,,,,,,,,,,,,,,,,,,,,,,,,,,,,,,,,,,,,,,,,,,,,,878.0121597909997,881.7144905,1,3.691637417000038,3.6916401670000596,0,,,0,,,0,,,,,,,,,,,,,,,,,,,,,,,,,,,,,,p_4,001,2024-03-12_10h25.09.680,speech_rate,2023.2.3,None,2024-03-12 10h31.13.024803 -0700,
,Someday_48_condition-3-5x.wav,Someday__Someday__Maybe__Unabridged___File_025_of_116_1.wav,But why not It's every actor's dream to perform on Broadway I protest and she gives me an indulgent smile I don't mean to shit on your dreams sweetie but I'm mainly out of show business these days This is as close as I want to be to that life she says putting her arm around Leighton's waist I just lost what the point of it all was,What is every actor's dream according to the narrator?,A. Performing in front of 1000 people,B. Performing in a Hollywood movie,C. Performing in an independent movie,D. Performing in a Broadway play,D. Performing in a Broadway play,no,6.475,,,,,,,,,,,,,0,18,18,18,,,,,,,,,881.727387333,,,,,,,,,,,,884.734456875,884.7504477076666,884.746389333,891.2184897910001,891.230014833,891.240689666,891.4789170409999,891.4789170409999,892.95509575,896.7225275410001,7.008333333333334,4.688738792000095,1,[3.7766536659996746],[3.77665583299995],,,,,,,,,,,,,,896.7229590829998,900.8198321659997,0,,,0,,,0,,,1,4.087473624999802,4.087476125000194,,,,,,,,881.715064041,881.727387333,881.727387333,881.727387333,884.7342707079997,1,[3.01755754099986],[3.0175601659998392],,,,,,,,,,,,,p_4,001,2024-03-12_10h25.09.680,speech_rate,2023.2.3,None,2024-03-12 10h31.13.024803 -0700,
,Someday_66_condition-4x.wav,Someday__Someday__Maybe__Unabridged___File_032_of_116_1.wav,These are perfect Let's Polaroid these two we might have to cut them in the back though She says you guys really shouldn't fudge your sizes you know she attempts a smile but I can tell she's irritated I Didn't fudge my sizes I say as nicely as I can at least I don't think I did Well what jean size did you give them Eight maybe in inches I mean I'm not sure I didn't know they made pants in sizes like that,What does the woman suggest regarding jeans sizes?,A. The narrator should not fudge her size,B. The narrator should avoid mentioning her size,C. Sizes like eight inches don't exist,D. Smiles are essential for jeans fittings,A. The narrator should not fudge her size,no,7.1725,,,,,,,,,,,,,0,19,19,19,,,,,,,,,900.826753416,,,,,,,,,,,,904.052772,904.0687732916665,904.0652682079999,911.2360671659999,911.2474757499999,911.2583890830001,911.465985625,911.465985625,915.7467161249997,917.2411750410001,1.5000000000000002,4.463063749999947,1,[1.5042340420000073],[1.5042364589999124],,,,,,,,,,,,,,917.2416105829998,926.1908653329997,1,8.940388958999847,8.940391708999869,0,,,0,,,0,,,,,,,,,,900.820254666,900.826753416,900.826753416,900.826753416,904.052578416,1,[3.2310270829998444],[3.231029665999813],,,,,,,,,,,,,p_4,001,2024-03-12_10h25.09.680,speech_rate,2023.2.3,None,2024-03-12 10h31.13.024803 -0700,
,Someday_149_condition-2x.wav,Someday__Someday__Maybe__Unabridged___File_098_of_116_1.wav,"The minute James got back into town, any doubts I might have had about us evaporated. He was tanned from the sun, proof of his days spent shooting in the desert and the sight of him made me melt. I'm confused by his message though. We discussed going to the premiere of his movie together. You're sending a car, I say, when he picks up. Like a rental car? No, like a car with a driver to pick you up. Like a limousine? Well, no, that'll probably just be a town car, a sedan. Is that okay?",How will the narrator go to the premiere?,A. By calling a cab,B. By renting a car,C. She will be picked up by a driver,D. She will be picked up by Dan,C. She will be picked up by a driver,no,15.69753125,,,,,,,,,,,,,0,20,20,20,,,,,,,,,926.1978652499997,,,,,,,,,,,,928.6186231659999,928.6478453333334,928.6393387499998,944.33707675,944.3498005000001,944.3610559579997,944.5687324999999,944.5687324999999,948.8139310829997,949.5717192080001,9.049999999999999,4.42489016699983,1,[0.7708165420003752],[0.7708186670001851],,,,,,,,,,,,,,949.5721477910001,953.2592236659998,0,,,0,,,1,3.678792833999978,3.6787958749996506,0,,,,,,,,,,926.19142775,926.1978652499997,926.1978652499997,926.1978652499997,928.618339958,1,[2.4261158340000293],[2.4261309589996927],,,,,,,,,,,,,p_4,001,2024-03-12_10h25.09.680,speech_rate,2023.2.3,None,2024-03-12 10h31.13.024803 -0700,
,Someday_92_condition-2-5x.wav,Someday__Someday__Maybe__Unabridged___File_040_of_116_1.wav,The chair I'm using is a cushiony office chair with wheels and I become aware about halfway through the monologue that I've been sort of sliding back and forth in it the chair with wheels equivalent of pacing I steady my feet on the floor and command myself to stop moving which causes me to forget my next line Shit I've totally lost my place I pause trying to stay in character I look out the window as though I'm she's having an important thought If I relax it will come to me If I panic it will not That's what I've learned in class,Why does the narrator look out the window during the monologue?,A. To take the agent's attention,B. To stay in character and find the next line,C. To see something interesting,D. To distract herself,B. To stay in character and find the next line,no,13.278125,,,,,,,,,,,,,0,21,21,21,,,,,,,,,953.2674195,,,,,,,,,,,,957.122368666,957.1383714576666,957.1412194159998,970.4401334159998,970.4209244579997,970.4320070409999,970.6345402080001,970.6345402080001,971.783357458,972.8444521659999,9.941666666666666,1.3270423330000085,1,[1.070127875000253],[1.0701305830002639],,,,,,,,,,,,,,972.8448720829997,977.323760833,0,,,1,4.470336166999914,4.4703385419998085,0,,,0,,,,,,,,,,953.2597677909998,953.2674195,953.2674195,953.2674195,957.1221866249998,1,[3.8607141659999797],[3.8607167910004137],,,,,,,,,,,,,p_4,001,2024-03-12_10h25.09.680,speech_rate,2023.2.3,None,2024-03-12 10h31.13.024803 -0700,
,Someday_98_condition-3x.wav,Someday__Someday__Maybe__Unabridged___File_044_of_116_0.wav,Yes Laughing girl has no lines She just laughs She just so there's no scene Nope She's a girl She laughs They want a funny laugher That's it Take a seat They'll be with you in a minute I squeeze onto the lumpy sofa next to a skinny brunette wearing high heeled black boots and funky glasses I should wear high heeled boots instead of Doc Martens I think to myself as I break into a nervous sweat I should get some funky glasses I should have a funny laugh,What is the role that the narrator is auditioning for?,A. A dramatic lead,B. A character with no lines,C. A comedy writer,D. A serious actress,B. A character with no lines,no,10.935,,,,,,,,,,,,,0,22,22,22,,,,,,,,,977.3311865410001,,,,,,,,,,,,979.3763573749998,979.3921989576668,979.3925844159999,990.3342466250001,990.335926833,990.3471542909997,990.5532950829997,990.5532950829997,995.168128541,995.941150958,6.541666666666666,4.795935167000152,1,[0.7828355000001466],[0.7828378330000305],,,,,,,,,,,,,,995.9415750829999,999.275596,0,,,1,3.3259839580000516,3.325986583000031,0,,,0,,,,,,,,,,977.3242275829998,977.3311865410001,977.3311865410001,977.3311865410001,979.3761561249999,1,[2.0504375830000754],[2.0504400830000122],,,,,,,,,,,,,p_4,001,2024-03-12_10h25.09.680,speech_rate,2023.2.3,None,2024-03-12 10h31.13.024803 -0700,
,Someday_144_condition-3x.wav,Someday__Someday__Maybe__Unabridged___File_092_of_116_1.wav,"Numbly, I watch my father behave in a way I've seldom seen. I'm riveted by how unfamiliar he seems to me, and I can't look away, even though his loopy expression makes me feel a little queasy. He's grinning so wide, he looks positively goofy. He calls her Dr. Mary, as in, Dr. Mary and I both love the New Haven Symphony season, and in response she laughs and rolls her eyes. It's so embarrassing when he calls me that, isn't it, Frances?",What does the narrator's father call the woman?,A. Dr. Mary,B. Dr. Shelly,C. Dr. Meryl,D. Dr. Kelly,A. Dr. Mary,no,11.07021875,,,,,,,,,,,,,0,23,23,23,,,,,,,,,999.2831947079999,,,,,,,,,,,,1002.0108057080001,1002.0266739996666,1002.027330291,1013.0918068329997,1013.1034546249998,1013.1146932080001,1013.3218952500001,1013.3218952500001,1016.2343660000001,1018.113058333,6.916666666666667,4.38259808399971,1,[1.8918830839998009],[1.8918855839997377],,,,,,,,,,,,,,1018.1134755829999,1020.3093228329999,1,2.188044208000065,2.1880464170003506,0,,,0,,,0,,,,,,,,,,999.276050083,999.2831947079999,999.2831947079999,999.2831947079999,1002.0106147910001,1,[2.734038290999706],[2.7340409159996852],,,,,,,,,,,,,p_4,001,2024-03-12_10h25.09.680,speech_rate,2023.2.3,None,2024-03-12 10h31.13.024803 -0700,
,Someday_43_condition-3-5x.wav,Someday__Someday__Maybe__Unabridged___File_023_of_116_1.wav,Then I'll call my dad and tell him I'm leaving New York You're doing the right thing honey he'll say Now you can get your teaching certificate I imagine what a relief it will be to have a real job I'll have a regular paycheck and a desk and a phone and a fax machine I'll have a computer which hopefully would come with someone to teach me how to use it And I'll have people to go out with sometimes after work for a drink at Bennigan's who'll me about their boyfriend or their kid or a project they're working on in their garage,What does the narrator think her father will say when she leaves New York?,A. That she is doing the right thing,B. That she should have tried harder,C. That she can go back to New York if she wants to,D. That she should have done it earlier,A. That she is doing the right thing,no,9.38125,,,,,,,,,,,,,0,24,24,24,,,,,,,,,1020.3169605409998,,,,,,,,,,,,1022.3762273749999,1022.3921953746665,1022.3912815409999,1031.7698207499998,1031.7791203329998,1031.789917833,1031.9942126249998,1031.9942126249998,1035.9537665829998,1036.692125041,5.991666666666666,4.139714000000367,1,[0.7475424580002255],[0.7475454999998874],,,,,,,,,,,,,,1036.692534458,1044.5068187910001,1,7.804246541000339,7.8042492909999055,0,,,0,,,0,,,,,,,,,,1020.309761083,1020.3169605409998,1020.3169605409998,1020.3169605409998,1022.3760312499999,1,[2.0649064579997685],[2.0649098330000015],,,,,,,,,,,,,p_4,001,2024-03-12_10h25.09.680,speech_rate,2023.2.3,None,2024-03-12 10h31.13.024803 -0700,
,Someday_143_condition-3x.wav,Someday__Someday__Maybe__Unabridged___File_088_of_116_3.wav,I know maybe I can give you my ID and you can pretend to be me Good thinking where can I get colored contacts and all of complexion and darker straighter hair in about an hour? I'm just brainstorming here. It's fine. Forget it. I just won't go But it feels terrible to even speak that possibility out loud. I've never missed a Finnegan wedding I haven't seen my dad in months haven't even really spoken to him His messages have had a strange sound to them lately. I think he's lonely. I can rent the car.,What does the narrator think about her father?,A. He is sad,B. He is lonely,C. He is cheerful,D. He is proud,B. He is lonely,yes,11.5933125,,,,,,,,,,,,,0,25,25,25,0,0,0,0,0,0,0,0,1065.6711647500001,,,,,,,,,,,,1047.1941376659997,1047.2101271666668,1047.211205125,1058.8048374159998,1058.806906416,1058.8292202499997,1059.0416809999997,1059.0416809999997,1063.781295875,1064.449523916,5.65,4.923759917000098,1,[0.677394834000097],[0.6773970419999387],,,,,,,,,,1065.6464336660001,1065.6711647500001,1080.655622958,i think he's lonely car dad haven't spoken to him lately,,,,,,,,,,,,,,,,,,,,,,1044.507372916,1044.520007041,1044.520007041,1044.520007041,1047.1939497499998,1,[2.6849891669999124],[2.684991749999881],1064.4499945409998,1064.455992916,1064.455992916,1064.455992916,1065.645674083,1,[1.1948834999998326],[1.1948860829998011],0,,,,p_4,001,2024-03-12_10h25.09.680,speech_rate,2023.2.3,None,2024-03-12 10h31.13.024803 -0700,
,Someday_143_condition-3x.wav,Someday__Someday__Maybe__Unabridged___File_088_of_116_3.wav,I know maybe I can give you my ID and you can pretend to be me Good thinking where can I get colored contacts and all of complexion and darker straighter hair in about an hour? I'm just brainstorming here. It's fine. Forget it. I just won't go But it feels terrible to even speak that possibility out loud. I've never missed a Finnegan wedding I haven't seen my dad in months haven't even really spoken to him His messages have had a strange sound to them lately. I think he's lonely. I can rent the car.,What does the narrator think about her father?,A. He is sad,B. He is lonely,C. He is cheerful,D. He is proud,B. He is lonely,yes,11.5933125,,,,,,,,,,,,,0,25,25,25,0,0,0,0,,,,,,,,,,,,,,,,,,,,,,,,,,,,,,,,,,,,,,,,,,,,,,,,,,,,,,,,,,,,,,,,,,,,,,,,,,,,,,,,,,,,,,p_4,001,2024-03-12_10h25.09.680,speech_rate,2023.2.3,None,2024-03-12 10h31.13.024803 -0700,
,Someday_143_condition-3x.wav,Someday__Someday__Maybe__Unabridged___File_088_of_116_3.wav,I know maybe I can give you my ID and you can pretend to be me Good thinking where can I get colored contacts and all of complexion and darker straighter hair in about an hour? I'm just brainstorming here. It's fine. Forget it. I just won't go But it feels terrible to even speak that possibility out loud. I've never missed a Finnegan wedding I haven't seen my dad in months haven't even really spoken to him His messages have had a strange sound to them lately. I think he's lonely. I can rent the car.,What does the narrator think about her father?,A. He is sad,B. He is lonely,C. He is cheerful,D. He is proud,B. He is lonely,yes,11.5933125,,,,,,,,,,,,,0,25,25,25,,,,,,,,,,,,,,,,,,,,,,,,,,,,,,,,,,,,,,,,,,,,,,,,,1080.6558073749998,1083.233488375,0,,,1,2.569672999999966,2.56967612499966,0,,,0,,,,,,,,,,,,,,,,,,,,,,,,,,,,,,p_4,001,2024-03-12_10h25.09.680,speech_rate,2023.2.3,None,2024-03-12 10h31.13.024803 -0700,
,Someday_116_condition-2x.wav,Someday__Someday__Maybe__Unabridged___File_052_of_116_0.wav,Yes I noticed that this may come as a shock to you But many studies have shown there's at least a slight nutritional difference between spinach that's rotting in the crisper drawer and spinach That's ingested into the body Details I scoff I give up she says heading for the kitchen more coffee I Stare down at my bagel which seems to I me warily back Maybe Jane's right Maybe I need more education I wonder what Penelope schlotzky eats on Sunday Probably not bagels,What does the narrator stare down at?,A. A bagel,B. Some spinach,C. A cup of coffee,D. A cup of tea,A. A bagel,yes,14.315,,,,,,,,,,,,,0,26,26,26,0,0,0,0,0,0,0,0,1103.2083401659997,,,,,,,,,,,,1085.294831875,1085.3103975826664,1085.314463625,1099.640347208,1099.6420653330001,1099.6633768329998,1099.9118241659999,1099.9118241659999,1101.125024333,1102.2018937499997,10,1.4371128749999116,1,[1.0858467919997565],[1.0858490830000846],,,,,,,,,,1103.198672,1103.2083401659997,1118.1920089159998,nutritional value spinach rotting in the crisper bagels penelope sundays,,,,,,,,,,,,,,,,,,,,,,1083.2340410409997,1083.240224791,1083.240224791,1083.240224791,1085.29463725,1,[2.060108333000244],[2.0601110830002654],1102.202413208,1102.20802,1102.20802,1102.20802,1103.1978544999997,1,[0.9946588749999137],[0.9946614169998611],0,,,1118.2103765409997,p_4,001,2024-03-12_10h25.09.680,speech_rate,2023.2.3,None,2024-03-12 10h31.13.024803 -0700,
,Someday_116_condition-2x.wav,Someday__Someday__Maybe__Unabridged___File_052_of_116_0.wav,Yes I noticed that this may come as a shock to you But many studies have shown there's at least a slight nutritional difference between spinach that's rotting in the crisper drawer and spinach That's ingested into the body Details I scoff I give up she says heading for the kitchen more coffee I Stare down at my bagel which seems to I me warily back Maybe Jane's right Maybe I need more education I wonder what Penelope schlotzky eats on Sunday Probably not bagels,What does the narrator stare down at?,A. A bagel,B. Some spinach,C. A cup of coffee,D. A cup of tea,A. A bagel,yes,14.315,,,,,,,,,,,,,0,26,26,26,0,0,0,0,,,,,,,,,,,,,,,,,,,,,,,,,,,,,,,,,,,,,,,,,,,,,,,,,,,,,,,,,,,,,,,,,,,,,,,,,,,,,,,,,,,,,,p_4,001,2024-03-12_10h25.09.680,speech_rate,2023.2.3,None,2024-03-12 10h31.13.024803 -0700,
,Someday_116_condition-2x.wav,Someday__Someday__Maybe__Unabridged___File_052_of_116_0.wav,Yes I noticed that this may come as a shock to you But many studies have shown there's at least a slight nutritional difference between spinach that's rotting in the crisper drawer and spinach That's ingested into the body Details I scoff I give up she says heading for the kitchen more coffee I Stare down at my bagel which seems to I me warily back Maybe Jane's right Maybe I need more education I wonder what Penelope schlotzky eats on Sunday Probably not bagels,What does the narrator stare down at?,A. A bagel,B. Some spinach,C. A cup of coffee,D. A cup of tea,A. A bagel,yes,14.315,,,,,,,,,,,,,0,26,26,26,,,,,,,,,,,,,,,,,,,,,,,,,,,,,,,,,,,,,,,,,,,,,,,,,1118.19227675,1122.4181926249998,1,4.217174124999929,4.217176749999908,0,,,0,,,0,,,,,,,,,,,,,,,,,,,,,,,,,,,,,,p_4,001,2024-03-12_10h25.09.680,speech_rate,2023.2.3,None,2024-03-12 10h31.13.024803 -0700,
,Someday_65_condition-3-5x.wav,Someday__Someday__Maybe__Unabridged___File_032_of_116_0.wav,From the minute I walk into the wardrobe fitting in a trailer near mine I'm confused There are two giant rolling racks one full of tan trousers one stuffed with 30 or 40 identical blue shirts Oh Are there are there more people coming I ask a harried looking woman nearby She looks at me as though I've said something strange what oh the racks No those are all for you But aren't these all the same pants I say laughing a little,What does the narrator find confusing in the wardrobe fitting?,A. The lack of clothing options,B. The number of people there,C. The presence of a harried woman,D. The identical blue shirts and tan trousers,D. The identical blue shirts and tan trousers,no,8.778125,,,,,,,,,,,,,0,27,27,27,,,,,,,,,1122.426070166,,,,,,,,,,,,1126.5488702499997,1126.5648530416668,1126.563038583,1135.342437791,1135.3447619579997,1135.3559854579999,1135.5925427500001,1135.5925427500001,1139.092602666,1139.7179014580001,4.983333333333333,3.712216167000406,1,[0.63458483300019],[0.6345872910001162],,,,,,,,,,,,,,1139.7184011250001,1146.3631433329997,0,,,0,,,0,,,1,6.635372749999988,6.635376124999766,,,,,,,,1122.4187309999998,1122.426070166,1122.426070166,1122.426070166,1126.548689583,1,[4.128355792000093],[4.128358750000189],,,,,,,,,,,,,p_4,001,2024-03-12_10h25.09.680,speech_rate,2023.2.3,None,2024-03-12 10h31.13.024803 -0700,
,Someday_10_condition.wav,Someday__Someday__Maybe__Unabridged___File_008_of_116_2.wav,I've worn this combination so many times before that today my all black outfit feels a little boring a little blah What would Jane do I think to myself and pull a chunky brown leather belt from the top shelf of the closet slinging it low around my hips Finally taking weather and product into consideration I take the top part of my hair and tie it into a small black velvet scrunchie on top of my head The phone begins to ring from its place on the landing between my room and Jane's Hi Dad,What does the narrator wear to their class after the audition?,A. A black dress,B. A white t-shirt,C. A red skirt,D. A brown leather belt,D. A brown leather belt,no,28.93,,,,,,,,,,,,,0,28,28,28,,,,,,,,,1146.375918708,,,,,,,,,,,,1148.8649944159997,1148.8972192493334,1148.896468291,1177.8281163329998,1177.830079208,1177.852366958,1178.0649485,1178.0649485,1179.261987125,1180.000717541,9.983333333333334,1.3850146670001777,1,[0.7477755830000206],[0.7477779579999151],,,,,,,,,,,,,,1180.001158958,1190.2523515829998,0,,,0,,,0,,,1,10.243642707999697,10.243645166000078,,,,,,,,1146.3637477500001,1146.375918708,1146.375918708,1146.375918708,1148.8647893749999,1,[2.499351750000187],[2.4993544579997433],,,,,,,,,,,,,p_4,001,2024-03-12_10h25.09.680,speech_rate,2023.2.3,None,2024-03-12 10h31.13.024803 -0700,
,Someday_24_condition-4x.wav,Someday__Someday__Maybe__Unabridged___File_015_of_116_0.wav,Thanks I say and then for no reason Any adjustments Stupid stupid Don't ask to do it again when you don't know what you did in the first place They both cock their heads at the same angle like two puppies in a pet store window Then they nod to each other again Sure yeah let's do one more just for kicks Yeah I mean that was great but let's in this one really have fun with it but also take it seriously like you did Yeah serious but fun like you're talking to your best friend Yeah like you're sharing a secret with your best friend,What do the casting directors suggest after the narrator's audition?,A. They compliment her performance,B. They ask her to do it in a more fun but serious way,C. They reject her immediately,D. They offer her the role,B. They ask her to do it in a more fun but serious way,no,7.475,,,,,,,,,,,,,0,29,29,29,,,,,,,,,1190.260813083,,,,,,,,,,,,1192.435792541,1192.4517624166667,1192.450126916,1199.9192108749999,1199.9309175409999,1199.941328375,1200.1486708329999,1200.1486708329999,1203.2564480830001,1204.0245718329998,1.2666666666666666,3.28759483299973,1,[0.7775456250001298],[0.7775477499999397],,,,,,,,,,,,,,1204.025041333,1208.903715208,0,,,1,4.869611000000077,4.869613374999972,0,,,0,,,,,,,,,,1190.2528270409998,1190.260813083,1190.260813083,1190.260813083,1192.435611666,1,[2.1823390409999774],[2.182343165999555],,,,,,,,,,,,,p_4,001,2024-03-12_10h25.09.680,speech_rate,2023.2.3,None,2024-03-12 10h31.13.024803 -0700,
,Someday_115_condition-4x.wav,Someday__Someday__Maybe__Unabridged___File_051_of_116_2.wav,All those people can't just be walking around starving and happening to look great all the time They must know something that the rest of us don't Or worse maybe there isn't a trick Maybe they are walking around hungry all the time Maybe that's the difference between being successful or unsuccessful Maybe I'm too weak I'm too concerned with feeling good to be willing to feel as bad as I should to be successful Why would feeling good be bad People spend their lives trying to feel good You're not supposed to walk around miserable all the time,What is the narrator's concern about the successful people she sees?,A. They are always happy,B. They are always starving themselves,C. They know a secret for good acting,D. They are too weak to succeed,B. They are always starving themselves,no,7.385,,,,,,,,,,,,,0,30,30,30,,,,,,,,,1208.911099416,,,,,,,,,,,,1210.0201285829999,1210.0361327076664,1210.033453,1217.4202599159998,1217.421811875,1217.432238208,1217.6392820410001,1217.6392820410001,1219.3456188750001,1220.0032006249999,1.975,1.8731456659998003,1,[0.6824016669997945],[0.6824039999996785],,,,,,,,,,,,,,1220.0036259159997,1231.655205083,1,11.64291404200003,11.642916457999945,0,,,0,,,0,,,,,,,,,,1208.9041630829997,1208.911099416,1208.911099416,1208.911099416,1210.0199497079998,1,[1.1144506659998115],[1.1144539160000022],,,,,,,,,,,,,p_4,001,2024-03-12_10h25.09.680,speech_rate,2023.2.3,None,2024-03-12 10h31.13.024803 -0700,
,Someday_26_condition-3-5x.wav,Someday__Someday__Maybe__Unabridged___File_015_of_116_2.wav,My stomach lurches The action between each line is the exact opposite of what the line is After kids are my number one priority it says rushing mom gets daughter to school just as the bell is ringing After the thing about always having time for friends looks at answering machine guiltily and decides to screen the call At the end the harried housewife stuffs an impossible amount of dirty clothes in the washer which miraculously come out clean and she gets a huge hug from her approving husband,What is the narrator's reaction to the script she's reading?,A. Her stomach lurches,B. She finds it amusing,C. She feels inspired,D. She is moved to tears,A. Her stomach lurches,no,8.715625,,,,,,,,,,,,,0,31,31,31,,,,,,,,,1231.662478666,,,,,,,,,,,,1233.5363871249997,1233.5519612076666,1233.551166625,1242.2651162500001,1242.269540708,1242.280795708,1242.486023458,1242.486023458,1244.6992354159997,1250.755273541,3.4,7.838339041999916,1,[6.065145999999913],[6.065148833999956],,,,,,,,,,,,,,1250.755723708,1254.706046625,1,3.9422627090002607,3.942265000000134,0,,,0,,,0,,,,,,,,,,1231.6556633750001,1231.662478666,1231.662478666,1231.662478666,1233.536169125,1,[1.8791602920000514],[1.8791629580000517],,,,,,,,,,,,,p_4,001,2024-03-12_10h25.09.680,speech_rate,2023.2.3,None,2024-03-12 10h31.13.024803 -0700,
,Someday_22_condition.wav,Someday__Someday__Maybe__Unabridged___File_013_of_116_1.wav,Want to go with me to that diner on 8th and get a salad in between Salad Oh yeah I'm supposed to eat more salad It just never seems appealing In fact I was already planning to go to that diner on 8th for my usual pre class dinner Grilled cheese french fries and the New York Times crossword puzzle But for some reason I find myself making an excuse I can't I have another you know torture session after this one,What was the narrator already planning to eat at the diner?,A. Grilled cheese and fries,B. Salad,C. Pie,D. Club sandwich,A. Grilled cheese and fries,no,28.11,,,,,,,,,,,,,0,32,32,32,,,,,,,,,1254.714487833,,,,,,,,,,,,1256.639407916,1256.6720799163331,1256.671822666,1284.7843475,1284.787089083,1284.808258208,1285.0071873329998,1285.0071873329998,1286.3015905829998,1287.064240625,10,1.468354999999974,1,[0.7722881660001804],[0.772290625000096],,,,,,,,,,,,,,1287.064705625,1289.0202841249998,1,1.9477014579997558,1.9477042079997773,0,,,0,,,0,,,,,,,,,,1254.706512416,1254.714487833,1254.714487833,1254.714487833,1256.6392312909998,1,[1.9322710410001491],[1.9322735830000966],,,,,,,,,,,,,p_4,001,2024-03-12_10h25.09.680,speech_rate,2023.2.3,None,2024-03-12 10h31.13.024803 -0700,
,Someday_33_condition-3x.wav,Someday__Someday__Maybe__Unabridged___File_018_of_116_2.wav,Well I wouldn't say I'd be amazing in it although thanks for saying so I think I'd just be okay in it I mean it is sort of right in my wheelhouse but I think you'd actually be great in it I'm serious I mean I could do it I guess and I probably would do it if they asked but I think my problem with it isn't the play itself but the guy who's in it now What's his name Anyway it doesn't matter I just think he's not really acting so much as just smoldering or something up there and I'm like buddy you can't just play every scene sexy I mean that's not an active choice,What issue does the narrator have with the actor currently in the play?,A. She thinks he's too active,B. She believes he's too serious,C. She thinks he's smoldering too much,D. She has no issue with him,C. She thinks he's smoldering too much,no,11.45625,,,,,,,,,,,,,0,33,33,33,,,,,,,,,1289.033889416,,,,,,,,,,,,1290.591495708,1290.6074513326664,1290.608727708,1302.054977625,1302.0701562499999,1302.081389,1302.2878773329999,1302.2878773329999,1303.6283169160001,1306.3305366659997,9.291666666666666,3.7772252499999013,1,[2.7114444160001767],[2.7114470000001347],,,,,,,,,,,,,,1306.33098875,1309.1295545409998,0,,,0,,,1,2.7898057919996972,2.7898086249997505,0,,,,,,,,,,1289.020818083,1289.033889416,1289.033889416,1289.033889416,1290.591300125,1,[1.568835874999877],[1.5688385409998773],,,,,,,,,,,,,p_4,001,2024-03-12_10h25.09.680,speech_rate,2023.2.3,None,2024-03-12 10h31.13.024803 -0700,
,Someday_56_condition-4x.wav,Someday__Someday__Maybe__Unabridged___File_027_of_116_4.wav,I'm not sure how to explain it to Everett in a way I think she'll understand What do I say Oh fine thanks Today was great but it doesn't take away my general fear that I'm not now nor will I ever be good enough Oh fine thanks There's a silence as we both sip our tea My whole family just went to see the Phantom of the Opera Everett says Have you seen it No I haven't Oh it's wonderful So magical There's a giant chandelier that appears right out of the sky,What are Everett and the narrator drinking while talking to each other?,A. Coffee,B. Wine,C. Tea,D. Beer,C. Tea,no,7.3425,,,,,,,,,,,,,0,34,34,34,,,,,,,,,1309.137343125,,,,,,,,,,,,1311.442549541,1311.4585328746664,1311.45504475,1318.802928083,1318.8047730829999,1318.826193166,1319.0263962909999,1319.0263962909999,1321.6351142909998,1322.3491239999998,3.408333333333333,2.7775755840002603,1,[0.7266373330003262],[0.726639625000189],,,,,,,,,,,,,,1322.3495506250001,1330.5107735000001,0,,,1,8.153198416000123,8.153201666000314,0,,,0,,,,,,,,,,1309.130142,1309.137343125,1309.137343125,1309.137343125,1311.442358291,1,[2.3104058330000043],[2.3104085410000152],,,,,,,,,,,,,p_4,001,2024-03-12_10h25.09.680,speech_rate,2023.2.3,None,2024-03-12 10h31.13.024803 -0700,
,Someday_81_condition-4x.wav,Someday__Someday__Maybe__Unabridged___File_037_of_116_2.wav,He's looking for meaning in his life and his art Oh is that all Yep Just the plain old everyday quest for the meaning of life A beautiful actress wearing glasses says something to the director played by Marcello Mastriani Her mouth keeps moving even after her voice has stopped The sink seems off It was the style of Italian filmmakers of the day to dub all the dialogue in later Dan explains eyes still pinned to the screen,What was the style of Italian filmmakers?,A. Dubbing all the dialogue later,B. Using a lot of jump cuts,C. Prioritizing cheap productions,D. Casting tall leads,A. Dubbing all the dialogue later,yes,7.5575,,,,,,,,,,,,,0,35,35,35,0,0,0,0,0,0,0,0,1345.521982875,,,,,,,,,,,,1332.393827041,1332.4098056246664,1332.4075915829999,1339.960298166,1339.97261725,1339.983821458,1340.188615208,1340.188615208,1343.5214352499997,1344.1444284999998,1.2583333333333335,3.5125804169997537,1,[0.6326005830001122],[0.6326028329999644],,,,,,,,,,1345.5124754999997,1345.521982875,1360.506134625,screen understand later,,,,,,,,,,,,,,,,,,,,,,1330.511232333,1330.5188658749998,1330.5188658749998,1330.5188658749998,1332.3936441249998,1,[1.8819668750002165],[1.8819694590001745],1344.1450581660001,1344.153256958,1344.153256958,1344.153256958,1345.5117272499997,1,[1.3658927500000573],[1.365895208999973],0,,,1360.5264066659997,p_4,001,2024-03-12_10h25.09.680,speech_rate,2023.2.3,None,2024-03-12 10h31.13.024803 -0700,
,Someday_81_condition-4x.wav,Someday__Someday__Maybe__Unabridged___File_037_of_116_2.wav,He's looking for meaning in his life and his art Oh is that all Yep Just the plain old everyday quest for the meaning of life A beautiful actress wearing glasses says something to the director played by Marcello Mastriani Her mouth keeps moving even after her voice has stopped The sink seems off It was the style of Italian filmmakers of the day to dub all the dialogue in later Dan explains eyes still pinned to the screen,What was the style of Italian filmmakers?,A. Dubbing all the dialogue later,B. Using a lot of jump cuts,C. Prioritizing cheap productions,D. Casting tall leads,A. Dubbing all the dialogue later,yes,7.5575,,,,,,,,,,,,,0,35,35,35,0,0,0,0,,,,,,,,,,,,,,,,,,,,,,,,,,,,,,,,,,,,,,,,,,,,,,,,,,,,,,,,,,,,,,,,,,,,,,,,,,,,,,,,,,,,,,p_4,001,2024-03-12_10h25.09.680,speech_rate,2023.2.3,None,2024-03-12 10h31.13.024803 -0700,
,Someday_81_condition-4x.wav,Someday__Someday__Maybe__Unabridged___File_037_of_116_2.wav,He's looking for meaning in his life and his art Oh is that all Yep Just the plain old everyday quest for the meaning of life A beautiful actress wearing glasses says something to the director played by Marcello Mastriani Her mouth keeps moving even after her voice has stopped The sink seems off It was the style of Italian filmmakers of the day to dub all the dialogue in later Dan explains eyes still pinned to the screen,What was the style of Italian filmmakers?,A. Dubbing all the dialogue later,B. Using a lot of jump cuts,C. Prioritizing cheap productions,D. Casting tall leads,A. Dubbing all the dialogue later,yes,7.5575,,,,,,,,,,,,,0,35,35,35,,,,,,,,,,,,,,,,,,,,,,,,,,,,,,,,,,,,,,,,,,,,,,,,,1360.50638725,1364.905868541,1,4.389283625000189,4.389286208000158,0,,,0,,,0,,,,,,,,,,,,,,,,,,,,,,,,,,,,,,p_4,001,2024-03-12_10h25.09.680,speech_rate,2023.2.3,None,2024-03-12 10h31.13.024803 -0700,
,Someday_126_condition-2-5x.wav,Someday__Someday__Maybe__Unabridged___File_055_of_116_1.wav,What luck maybe this is going to be okay Maybe I'm not repulsive and mushy after all I'm a genius who has been in studious self imposed exile whilst honing my craft waiting for this day to come with patience and nobility It was meant to be Yes I know it I know it a little too well actually Great then just get over there as quickly as you can They're closing the session at 2 p m I'll fax you the sides and the appointment info Just call us with any questions and break a leg,What is the narrator's attitude towards her own preparation and opportunity?,A. Uncertain and self-critical about her appearance and skills,B. Confident and self-assured about the effort put into her craft,C. Indifferent and unprepared for the upcoming opportunity,D. Overwhelmed and doubtful about meeting the appointment on time,B. Confident and self-assured about the effort put into her craft,yes,12.454875,,,,,,,,,,,,,0,36,36,36,0,0,0,0,0,0,0,0,1386.074315375,,,,,,,,,,,,1369.3480759579998,1369.3639084166664,1369.365934083,1381.8124685409998,1381.8246489580001,1381.846190625,1382.0825129579998,1382.0825129579998,1383.7492944159999,1384.6689379999998,9.266666666666666,1.8780225000000428,1,[0.9288502499998685],[0.9288525829997525],,,,,,,,,,1386.064740708,1386.074315375,1401.0579713749999,genius self-imposed exile honing craft break a leg call us if you have any questions,,,,,,,,,,,,,,,,,,,,,,1364.9064294999998,1364.9135392499998,1364.9135392499998,1364.9135392499998,1369.347865791,1,[4.439789875000315],[4.439792459000273],1384.66941275,1384.6753445,1384.6753445,1384.6753445,1386.063984291,1,[1.3937768339997092],[1.3937793340001008],0,,,1401.0797320409997,p_4,001,2024-03-12_10h25.09.680,speech_rate,2023.2.3,None,2024-03-12 10h31.13.024803 -0700,
,Someday_126_condition-2-5x.wav,Someday__Someday__Maybe__Unabridged___File_055_of_116_1.wav,What luck maybe this is going to be okay Maybe I'm not repulsive and mushy after all I'm a genius who has been in studious self imposed exile whilst honing my craft waiting for this day to come with patience and nobility It was meant to be Yes I know it I know it a little too well actually Great then just get over there as quickly as you can They're closing the session at 2 p m I'll fax you the sides and the appointment info Just call us with any questions and break a leg,What is the narrator's attitude towards her own preparation and opportunity?,A. Uncertain and self-critical about her appearance and skills,B. Confident and self-assured about the effort put into her craft,C. Indifferent and unprepared for the upcoming opportunity,D. Overwhelmed and doubtful about meeting the appointment on time,B. Confident and self-assured about the effort put into her craft,yes,12.454875,,,,,,,,,,,,,0,36,36,36,0,0,0,0,,,,,,,,,,,,,,,,,,,,,,,,,,,,,,,,,,,,,,,,,,,,,,,,,,,,,,,,,,,,,,,,,,,,,,,,,,,,,,,,,,,,,,p_4,001,2024-03-12_10h25.09.680,speech_rate,2023.2.3,None,2024-03-12 10h31.13.024803 -0700,
,Someday_126_condition-2-5x.wav,Someday__Someday__Maybe__Unabridged___File_055_of_116_1.wav,What luck maybe this is going to be okay Maybe I'm not repulsive and mushy after all I'm a genius who has been in studious self imposed exile whilst honing my craft waiting for this day to come with patience and nobility It was meant to be Yes I know it I know it a little too well actually Great then just get over there as quickly as you can They're closing the session at 2 p m I'll fax you the sides and the appointment info Just call us with any questions and break a leg,What is the narrator's attitude towards her own preparation and opportunity?,A. Uncertain and self-critical about her appearance and skills,B. Confident and self-assured about the effort put into her craft,C. Indifferent and unprepared for the upcoming opportunity,D. Overwhelmed and doubtful about meeting the appointment on time,B. Confident and self-assured about the effort put into her craft,yes,12.454875,,,,,,,,,,,,,0,36,36,36,,,,,,,,,,,,,,,,,,,,,,,,,,,,,,,,,,,,,,,,,,,,,,,,,1401.0581563749997,1417.994749291,0,,,1,16.924321082999995,16.92432404200008,0,,,0,,,,,,,,,,,,,,,,,,,,,,,,,,,,,,p_4,001,2024-03-12_10h25.09.680,speech_rate,2023.2.3,None,2024-03-12 10h31.13.024803 -0700,
,Someday_113_condition.wav,Someday__Someday__Maybe__Unabridged___File_050_of_116_0.wav,She lives I think I need a manager Why do you need a manager I thought you just got an agent I did but they aren't getting me any auditions If you have no auditions what's there to manage A manager would help me get auditions How could a manager do that when the agents can't Well managers have fewer people so they can focus just on you And why do you have an agent at all Why not just have a manager You have to have an agent They're the only ones allowed to negotiate contracts Agents are franchised managers aren't,Why does the narrator want to get a manager?,A. To help negotiate contracts,B. To get auditions,C. Because agents are expensive,D. To manage the finances,B. To get auditions,yes,27.96996875,,,,,,,,,,,,,0,37,37,37,0,0,0,0,0,0,0,0,1454.294899333,,,,,,,,,,,,1422.646849625,1422.6761486663331,1422.6776480409999,1450.678044791,1450.6487514579999,1450.670333125,1450.912816958,1450.912816958,1452.820281416,1453.448797208,10,2.1230493329999263,1,[0.6378382500001862],[0.63784112500025],,,,,,,,,,1454.2853475829997,1454.294899333,1469.2793850409998,agents managers franchised auditions less people,,,,,,,,,,,,,,,,,,,,,,1417.995297291,1418.0079015000001,1418.0079015000001,1418.0079015000001,1422.6465696659998,1,[4.649000792000152],[4.649010707999878],1453.44927,1453.458961875,1453.458961875,1453.458961875,1454.284654041,1,[0.8346092080000744],[0.8346117500000219],0,,,1469.2984161659997,p_4,001,2024-03-12_10h25.09.680,speech_rate,2023.2.3,None,2024-03-12 10h31.13.024803 -0700,
,Someday_113_condition.wav,Someday__Someday__Maybe__Unabridged___File_050_of_116_0.wav,She lives I think I need a manager Why do you need a manager I thought you just got an agent I did but they aren't getting me any auditions If you have no auditions what's there to manage A manager would help me get auditions How could a manager do that when the agents can't Well managers have fewer people so they can focus just on you And why do you have an agent at all Why not just have a manager You have to have an agent They're the only ones allowed to negotiate contracts Agents are franchised managers aren't,Why does the narrator want to get a manager?,A. To help negotiate contracts,B. To get auditions,C. Because agents are expensive,D. To manage the finances,B. To get auditions,yes,27.96996875,,,,,,,,,,,,,0,37,37,37,0,0,0,0,,,,,,,,,,,,,,,,,,,,,,,,,,,,,,,,,,,,,,,,,,,,,,,,,,,,,,,,,,,,,,,,,,,,,,,,,,,,,,,,,,,,,,p_4,001,2024-03-12_10h25.09.680,speech_rate,2023.2.3,None,2024-03-12 10h31.13.024803 -0700,
,Someday_113_condition.wav,Someday__Someday__Maybe__Unabridged___File_050_of_116_0.wav,She lives I think I need a manager Why do you need a manager I thought you just got an agent I did but they aren't getting me any auditions If you have no auditions what's there to manage A manager would help me get auditions How could a manager do that when the agents can't Well managers have fewer people so they can focus just on you And why do you have an agent at all Why not just have a manager You have to have an agent They're the only ones allowed to negotiate contracts Agents are franchised managers aren't,Why does the narrator want to get a manager?,A. To help negotiate contracts,B. To get auditions,C. Because agents are expensive,D. To manage the finances,B. To get auditions,yes,27.96996875,,,,,,,,,,,,,0,37,37,37,,,,,,,,,,,,,,,,,,,,,,,,,,,,,,,,,,,,,,,,,,,,,,,,,1469.2796682079997,1474.3155134579997,0,,,1,5.026933957999972,5.026936916000068,0,,,0,,,,,,,,,,,,,,,,,,,,,,,,,,,,,,p_4,001,2024-03-12_10h25.09.680,speech_rate,2023.2.3,None,2024-03-12 10h31.13.024803 -0700,
,Someday_135_condition-3-5x.wav,Someday__Someday__Maybe__Unabridged___File_079_of_116_2.wav,"I can hear the light but quick creaking of someone jogging up the stairs, which tells me it's Jane coming home. Dan coming up the stairs sounds heavy and deliberate. Dan is rarely in a hurry. This is thrilling. Jane can be with me while I read the script for my first ever actual acting job. The fax starts to ring, but I know it will take forever to answer in print, so I whip down the metal circular staircase to tell Jane the news. Jane, I got a job. She turns away from the counter where she's unloading groceries and claps her hands, her face all lit up.",What news does the narrator tell Jane?,A. That she is fired,B. That she has a new boyfriend,C. That she got a job,D. That Dan is coming home,C. That she got a job,no,9.69446875,,,,,,,,,,,,,0,38,38,38,,,,,,,,,1474.328051083,,,,,,,,,,,,1476.9355138749997,1476.9514843326667,1476.9511091659997,1486.6458830409997,1486.648131375,1486.6593819999998,1486.899391166,1486.899391166,1488.6279425829998,1489.308496,6.975,1.9414502090003225,1,[0.6927242920000936],[0.6927269170000727],,,,,,,,,,,,,,1489.308921458,1491.673255666,0,,,0,,,1,2.356652749999739,2.3566556669998135,0,,,,,,,,,,1474.316084083,1474.328051083,1474.328051083,1474.328051083,1476.935325208,1,[2.618765166999765],[2.618767625000146],,,,,,,,,,,,,p_4,001,2024-03-12_10h25.09.680,speech_rate,2023.2.3,None,2024-03-12 10h31.13.024803 -0700,
,Someday_130_condition.wav,Someday__Someday__Maybe__Unabridged___File_057_of_116_2.wav,Are you sure you're here for Ebony Breeze perfume What Oh no I'm here for Pine Tree Lodge I thought so You're on the wrong floor P L is on 34 one more up Oh oh thank God I sputter I mean I didn't I got out too I was confused because I gesture helplessly to the room behind me,What mistake does the narrator realize she has made?,A. Coming to the wrong appointment for a perfume,B. Misunderstanding the product she is endorsing,C. Being on the incorrect floor for her intended destination,D. Forgetting the name of the perfume she is promoting,C. Being on the incorrect floor for her intended destination,no,29.10465625,,,,,,,,,,,,,0,39,39,39,,,,,,,,,1491.6815999579999,,,,,,,,,,,,1493.636556041,1493.6691816243333,1493.668449291,1522.7812222499997,1522.784158083,1522.8054191249998,1523.0187919999998,1523.0187919999998,1524.1585605,1525.154738541,9.908333333333333,1.3255799580001622,1,[1.0057574580000619],[1.0057598329999564],,,,,,,,,,,,,,1525.155164625,1539.0682862499998,0,,,0,,,1,13.903484707999723,13.903487957999914,0,,,,,,,,,,1491.6738343329998,1491.6815999579999,1491.6815999579999,1491.6815999579999,1493.6363729999998,1,[1.9607684170000539],[1.9607711670000754],,,,,,,,,,,,,p_4,001,2024-03-12_10h25.09.680,speech_rate,2023.2.3,None,2024-03-12 10h31.13.024803 -0700,
,Someday_108_condition-3x.wav,Someday__Someday__Maybe__Unabridged___File_048_of_116_1.wav,Clothes that have to be dry cleaned are already the most expensive clothes Then it's like they're charging you another 3 every time you wear them Regular clothes charge money to clean them if we're looking at it that way Regular laundry costs money too but not as much And you can do regular laundry yourself Dry cleaning is like the secret society you're not allowed into No matter what you're at their mercy You can have a PhD in anything but you still can't dry clean your own clothes They'll never tell you how No one's ever even seen what the machine looks like,What is the narrator's opinion about dry cleaning?,A. It's less expensive than regular laundry,B. It's a secret society with hidden machines,C. It's environmentally friendly,D. It's a simple and accessible process,B. It's a secret society with hidden machines,yes,10.75125,,,,,,,,,,,,,0,40,40,40,0,0,0,0,0,0,0,0,1558.5011125830001,,,,,,,,,,,,1542.5730131249998,1542.5889559166665,1542.589694625,1553.349703291,1553.351709125,1553.362955875,1553.57132775,1553.57132775,1554.720787625,1557.5741787910001,7.058333333333334,3.6137627090001843,1,[2.86210012499987],[2.8621024169997327],,,,,,,,,,1558.4916008750001,1558.5011125830001,1573.484791458,dry cleaning secret society phd nobody will tell you what the machine looks like nobody understands,,,,,,,,,,,,,,,,,,,,,,1539.0687857909998,1539.081505791,1539.081505791,1539.081505791,1542.572821541,1,[3.502369333000388],[3.5023720830004095],1557.574642,1557.581227833,1557.581227833,1557.581227833,1558.4905979159998,1,[0.9151244160002534],[0.9151270410002326],0,,,1573.5038018330001,p_4,001,2024-03-12_10h25.09.680,speech_rate,2023.2.3,None,2024-03-12 10h31.13.024803 -0700,
