index,wav_file,old_name,segment_text,question,C1,C2,C3,C4,C_correct,summary,duration,training.thisRepN,training.thisTrialN,training.thisN,training.thisIndex,experiment.thisRepN,experiment.thisTrialN,experiment.thisN,experiment.thisIndex,thisRow.t,notes,Instructions.started,Instructions.stopped,Start_Segment_Train.started,Play_train.started,Trial_counter_train.started,text_5.started,Start_Segment_Train.stopped,Play_train.numClicks,Play_train.timesOn,Play_train.timesOff,Training_Segment.started,Experimen_audio.started,polygon.started,polygon.stopped,Training_Segment.stopped,Summary.started,textbox.started,summary_done.started,Summary.stopped,textbox.text,summary_done.numClicks,summary_done.timesOn,summary_done.timesOff,Start_Exp.started,Start_exp.started,Start.started,Start_Exp.stopped,Start.numClicks,Start.timesOn,Start.timesOff,Start_Segment.started,Play.started,Trial_counter.started,text_6.started,Start_Segment.stopped,Play.numClicks,Play.timesOn,Play.timesOff,Thanks.started,text_7.started,text_7.stopped,Thanks.stopped,participant,session,date,expName,psychopyVersion,frameRate,expStart,
1,Someday_trial_condition.wav,Someday__Someday__Maybe__Unabridged___File_069_of_116_3.wav,It's a gut feeling You can't nickname him He's a real person not a joke person You don't have to tell me Only a real person would try to shake hands with my best friend's foot Jane you're not explaining it right It was very romantic And thankfully our steaming bowl of bright yellow melted cheese with flecks of green chilies arrives Listen she says dipping a chip into the creamy depths You're the one with the brand new personality I'm still the same old Jane,"What does the narrator have, according to Jane?",A) A new recipe for dipping sauce,B) A new personality,C) A new restaurant suggestion,D) A new pair of shoes,B) A new personality,yes,30,0,0,0,0,,,,,65.12408200000004,,0.01012670800014348,65.09941695800012,65.10856925000007,65.12408200000004,65.12408200000004,65.12408200000004,68.23214654200001,1,[3.1153366250000545],[3.1153392090000125],68.2325168750001,68.28176483300017,68.27663070800008,98.31986620800012,98.2747159170001,98.29695400000014,98.31986620800012,98.31986620800012,180.65242312500004,Jane and her friend discuss a recent date but it gets metaphorically compared to a cheesy dip which might have some green in it or something. The dip was received by delivery. The suitor on Jane's friend's date shook hands with a foot and that was weird but Jane's friend said that the whole evening should be interpreted as romantic. ,1,[82.34130837500015],[82.3413112090002],,,,,,,,,,,,,,,,,,,,p_1,001,2024-03-26_13h11.55.322,speech_rate,2023.2.3,None,2024-03-26 13h12.06.136700 -0700,
2,Someday_trial_condition-4x.wav,Someday__Someday__Maybe__Unabridged___File_103_of_116_1.wav,Isn't halfway where two people usually meet Well in general maybe But tonight this is sort of a big deal for me It's my night I'm not sure you you don't think I get it Well no I mean how could you I'm having trouble making sense of this conversation James is speaking with authority but there's something wrong Something feels so wrong somehow I don't care about waving and smiling and having my picture taken with him,"How does James speak, according to the narrator?",A) With compassion,B) With grief,C) With hesitation,D) With authority,D) With authority,yes,7.5,0,1,1,1,,,,,180.67808616700017,,,,180.65287079200016,180.67808616700017,180.67808616700017,180.67808616700017,187.50270650000016,1,[6.846366791000037],[6.846369332999984],187.5028910420001,187.5189384996668,187.51672554200013,195.03418879200012,195.013914958,195.02511637500015,195.03418879200012,195.03418879200012,222.366549458,Jane's friend is angry and wants to have control over the conversation. "There's nothing wrong!" she excalims. ,1,[27.33894525000005],[27.33896116599999],,,,,,,,,,,,,,,,,,,,p_1,001,2024-03-26_13h11.55.322,speech_rate,2023.2.3,None,2024-03-26 13h12.06.136700 -0700,
,Someday_142_condition-3-5x.wav,Someday__Someday__Maybe__Unabridged___File_088_of_116_2.wav,"Metro North is on strike. So I can't take the train I have no wallet. No driver's license. I can't pick up the rental car Two nights ago on the way home from James's I arrived at our front door Just as our downstairs neighbor was leaving and Dan and Jane were home with the door to our place already open So it wasn't until I went to get bagels the next morning that I realized in my rush to leave I forgot my purse at James's apartment. I left him a message, but he must have already taken off for Los Angeles",Where did the narrator forget her purse?,A. In the subway,B. In James's apartment,C. In the acting school,D. In the cab,B. In James's apartment,no,8.51471875,,,,,0,0,0,0,266.256077708,,,,,,,,,,,,268.64041320800015,268.6562799166668,268.65587358300013,277.19334333300003,277.1730210420001,277.1842488750001,277.19334333300003,277.19334333300003,321.5436765420002,"The narrator was discussing them missing the train and being late to work. They sent a text saying they'd be late because they were worried about the consequences to a person they (might be) meeting.
",1,[44.35790933299995],[44.35791525000013],222.36755566700003,222.3755735000002,222.3755735000002,266.1759756670001,1,[43.80718133300002],[43.80718462499999],266.24190316700015,266.256077708,266.256077708,266.256077708,268.6400515,1,[2.3945941670001503],[2.3945970000002035],,,,,p_1,001,2024-03-26_13h11.55.322,speech_rate,2023.2.3,None,2024-03-26 13h12.06.136700 -0700,
,Someday_20_condition.wav,Someday__Someday__Maybe__Unabridged___File_012_of_116_1.wav,Upstairs the waiting room is crowded which means there must be a few different casting calls There are boys and girls near the age of the elevator twins a couple of men in their 50s both in suit and tie and several girls who remind me of me but a better more put together me the me who would play me in the TV movie of the fictional life of the real me I sign in Name time arrived time scheduled agency social security number,What observation does the narrator make about the individuals in the waiting room?,A. They are all likely there for the same casting call,B. They are unorganized and scattered,"C. They appear to be different versions of the narrator, better and more composed",D. They are unrelated to the narrator's field of work,"C. They appear to be different versions of the narrator, better and more composed",no,27.41,,,,,0,1,1,1,321.55306095800006,,,,,,,,,,,,324.0439866250001,324.0766852083332,324.07599408300007,351.4885554580003,351.4911181670002,351.5134246670002,351.5225640420001,351.5225640420001,492.5371050420001,"Narrator recounts her experience waiting in the room for  her audition. She observes the others, two girls who are similar to the elevator twins, and many others. She seems to have a melancholy tone as would be expected in such an experience. She walks to sign the form, which requests, age, name, agency, and social security number. She sarcstically remarks at how all these people think they'd be the best to play herself in the movie, despite the narrator probably being the best for that.",1,[141.02218429100003],[141.0221877910003],,,,,,,,321.5444197080001,321.55306095800006,321.55306095800006,321.55306095800006,324.04379833300004,1,[2.497523583999964],[2.4975260419998904],,,,,p_1,001,2024-03-26_13h11.55.322,speech_rate,2023.2.3,None,2024-03-26 13h12.06.136700 -0700,
,Someday_91_condition-4x.wav,Someday__Someday__Maybe__Unabridged___File_040_of_116_0.wav,Please go ahead and begin your monologue whenever you're ready We can chat afterwards Take your time His words are encouraging but his face is neutral at best And when there are two people in a room and one of them is there purely to see the other person do something the notion that that person could actually take their time seems ridiculous But I try I try to take a deep breath but the air gets sort of stuck and doesn't go all the way down to my lungs I need a minute to calm down but I can't possibly take it,What is the narrator's reaction to the suggestion to take her time?,A. She feels comforted,B. She finds it ridiculous,C. She rejects the offer,D. She chats with the agent first,B. She finds it ridiculous,yes,7.1475,,,,,0,2,2,2,492.544304583,,,,,,,,,,,,494.86999641700027,494.8858796666668,494.88164500000016,502.0181386669999,502.038407708,502.04941762500016,502.05825804200026,502.05825804200026,520.7054036249999,Narrator is taking a test. She is nervous. She takes a breath because she really needs it.,1,[18.653251791000002],[18.653254708000077],,,,,,,,492.537467292,492.544304583,492.544304583,492.544304583,494.86983175,1,[2.3318159170003128],[2.3318185000002813],,,,,p_1,001,2024-03-26_13h11.55.322,speech_rate,2023.2.3,None,2024-03-26 13h12.06.136700 -0700,
,Someday_33_condition-2-5x.wav,Someday__Someday__Maybe__Unabridged___File_018_of_116_2.wav,Well I wouldn't say I'd be amazing in it although thanks for saying so I think I'd just be okay in it I mean it is sort of right in my wheelhouse but I think you'd actually be great in it I'm serious I mean I could do it I guess and I probably would do it if they asked but I think my problem with it isn't the play itself but the guy who's in it now What's his name Anyway it doesn't matter I just think he's not really acting so much as just smoldering or something up there and I'm like buddy you can't just play every scene sexy I mean that's not an active choice,What issue does the narrator have with the actor currently in the play?,A. She thinks he's too active,B. She believes he's too serious,C. She thinks he's smoldering too much,D. She has no issue with him,C. She thinks he's smoldering too much,no,13.365625,,,,,0,3,3,3,520.7142812079999,,,,,,,,,,,,522.0381440829999,522.0540564996668,522.0581238330003,535.4320117499999,535.4341079580001,535.4446545829999,535.4543675420002,535.4543675420002,587.2762387079999,"Narrator is venting about her early experiences in rehearsing for her role. She doesn't have a problem with the play, but does have a problem with the male actor who is just trying to act sexy the whole time rather than actually trying to assume his character.",1,[51.82944691700004],[51.82945391700014],,,,,,,,520.705758375,520.7142812079999,520.7142812079999,520.7142812079999,522.0379592080001,1,[1.3302680830001918],[1.3302708330002133],,,,,p_1,001,2024-03-26_13h11.55.322,speech_rate,2023.2.3,None,2024-03-26 13h12.06.136700 -0700,
,Someday_139_condition-2-5x.wav,Someday__Someday__Maybe__Unabridged___File_081_of_116_1.wav,"Sorry, you guys says Dan I suck. I don't know how actors do it. I want to help Can I just read this next scene to myself first before we do it out loud? Of course I say to him generously then I turn to Jane and roll my eyes these method actors Here you go. Mr. James Dean sir says Jane handing him a single sheet of paper. It's just the one page What a drama queen he is don't quit your day job Danny Dan pours over the single sheet holding it tightly on either side.",What does the narrator do when she turns to Jane?,A. She rolls her eyes,B. She smiles,C. She winks,D. She nods,A. She rolls her eyes,no,13.749,,,,,0,4,4,4,587.286985167,,,,,,,,,,,,589.358956583,589.3914610413333,589.381353167,603.1359677500002,603.1474592500001,603.1586788330003,603.1678406670001,603.1678406670001,672.8971405,"Narrator asks to have another go at some lines that they messed up. Someone else says it's ok for her to take another shot, then looks at Jane and rolls her eyes, sarcastically remarking about "method" actors. Someone eats some soup or something at the end i dunno",1,[69.73689566700023],[69.73689862499987],,,,,,,,587.2769136250001,587.286985167,587.286985167,587.286985167,589.3587446250001,1,[2.0779189579998274],[2.0779215419997854],,,,,p_1,001,2024-03-26_13h11.55.322,speech_rate,2023.2.3,None,2024-03-26 13h12.06.136700 -0700,
,Someday_65_condition-3x.wav,Someday__Someday__Maybe__Unabridged___File_032_of_116_0.wav,From the minute I walk into the wardrobe fitting in a trailer near mine I'm confused There are two giant rolling racks one full of tan trousers one stuffed with 30 or 40 identical blue shirts Oh Are there are there more people coming I ask a harried looking woman nearby She looks at me as though I've said something strange what oh the racks No those are all for you But aren't these all the same pants I say laughing a little,What does the narrator find confusing in the wardrobe fitting?,A. The lack of clothing options,B. The number of people there,C. The presence of a harried woman,D. The identical blue shirts and tan trousers,D. The identical blue shirts and tan trousers,yes,10.53375,,,,,0,5,5,5,672.9045752919999,,,,,,,,,,,,674.0471452080003,674.0630015836668,674.063643833,684.6072603750001,684.6103800829999,684.6208251250002,684.6304539580003,684.6304539580003,724.6666837079999,"Narrator walks into a room and sees many clothes, many more than she was expecting. The wardrobe agent confirms that they are in fact all for the narrator.",1,[40.044313542000054],[40.04431599999998],,,,,,,,672.8974960000003,672.9045752919999,672.9045752919999,672.9045752919999,674.04696175,1,[1.1488030830000753],[1.1488055830000121],,,,,p_1,001,2024-03-26_13h11.55.322,speech_rate,2023.2.3,None,2024-03-26 13h12.06.136700 -0700,
,Someday_39_condition-3-5x.wav,Someday__Someday__Maybe__Unabridged___File_021_of_116_1.wav,People who are admired for holding it together are not people who are about to get agents They're people who are recovering from cancer or undergoing a murder trial And I dropped a section I add hoping he'll say he didn't notice Yeah I know but I only know because I'm obsessed with that guy's work No one will dock you for that It's not exactly a glowing review but he doesn't seem totally horrified Still he's avoiding the thing I most want to know But when I fell I mean how bad was it,What does the narrator hope the person they are talking to will say?,A. That he didn't notice the mistake,B. That he noticed the dropped section,C. That he wants to be an agent,D. That he's obsessed with the narrator's work,A. That he didn't notice the mistake,no,9.134375,,,,,0,6,6,6,724.692227625,,,,,,,,,,,,726.1000132080001,726.1158742496668,726.1160802080001,735.2435701669999,735.2634578330001,735.2746823330001,735.284121375,735.284121375,779.5200735830001,"Narrator fell and hurt herself, but says people have gone through worse like cancer in an effort to cheer herself and whomever she's spaeking to up.",1,[44.24384016699969],[44.24384250000003],,,,,,,,724.667211792,724.692227625,724.692227625,724.692227625,726.0998243750003,1,[1.429728334000174],[1.4297309590001532],,,,,p_1,001,2024-03-26_13h11.55.322,speech_rate,2023.2.3,None,2024-03-26 13h12.06.136700 -0700,
,Someday_103_condition.wav,Someday__Someday__Maybe__Unabridged___File_045_of_116_1.wav,So I let it soften back down to the small giggle and finally exhausted but happy I let out a little sigh that's interrupted by an almost involuntary hiccup like I gulp down too much champagne all at once It's a blur from that point on a series of snapshots that flashed before me The woman in the back mouthing see to the disgruntled man who nods and shrugs at her in a way That says who knew and the man in glasses asking me to wait in the waiting room,What happens after the narrator finishes their audition?,A. She is congratulated by the casting director,B. She is asked to perform the laugh again,C. She is asked to wait in the waiting room,D. She is immediately given the role,C. She is asked to wait in the waiting room,no,28.64,,,,,0,7,7,7,779.5453270830001,,,,,,,,,,,,781.0182052920002,781.0502358753336,781.049577083,809.6977517080002,809.7009863750002,809.7232367080003,809.732852417,809.732852417,879.3920245830002,"Narrator describes laughing with depleting energy into a chuckle and then, unfortunately, ahiccup. Observer 1 looks back confirmingly and says "who knew" and then turns to  look at a man whom is also observing.
",1,[69.66727750000018],[69.66728029200021],,,,,,,,779.5204385,779.5453270830001,779.5453270830001,779.5453270830001,781.0179472080001,1,[1.494604457999685],[1.4946076669998547],,,,,p_1,001,2024-03-26_13h11.55.322,speech_rate,2023.2.3,None,2024-03-26 13h12.06.136700 -0700,
,Someday_2_condition-3x.wav,Someday__Someday__Maybe__Unabridged___File_004_of_116_1.wav,Successful actresses are disciplined people who wake up early to focus on their craft I told myself even ones who still make their living as waitresses like me I started leaving the alarm clock on the landing between Jane's room and mine so I'd have to actually get out of bed in order to turn it off instead of hitting snooze over and over like I normally do I also resolved to quit smoking again to stop losing purses wallets and umbrellas and to not eat any more cheese puffs not even on special occasions,What resolution does the narrator make about her lifestyle to become a successful actress?,A. To wake up early and focus on her craft,B. To quit smoking and stop losing personal items,"C. To stop eating cheese puffs, even on special occasions",D. All of the above,D. All of the above,no,11.38125,,,,,0,8,8,8,879.39960025,,,,,,,,,,,,880.7591356250002,880.7749157086669,880.7762367920002,892.180650125,892.1599265000002,892.1711439170001,892.180650125,892.180650125,954.613198583,"Narrator describes how she must become disciplined, all good actors must become disciplined, just like everyone else. She resolves to quit smoking and put her alarm clock in the hallway so she has to get out of bed to turn it off. She makes other resolutions. Will she be successful? "Who kn[ows]"!",1,[62.4404052079999],[62.44041104100006],,,,,,,,879.3924262080002,879.39960025,879.39960025,879.39960025,880.758929375,1,[1.3658466249999037],[1.3658493749999252],,,,,p_1,001,2024-03-26_13h11.55.322,speech_rate,2023.2.3,None,2024-03-26 13h12.06.136700 -0700,
,Someday_52_condition-4x.wav,Someday__Someday__Maybe__Unabridged___File_026_of_116_0.wav,She takes a deep breath and narrows her eyes and says slowly and deliberately I won't until I get something on my favorite show Law and Order You've never been on Law and Order I say surprised but you're perfect for it I know I'm even Irish and Italian Who knows cops and criminals better So why You haven't auditioned for them or People known for being on the most ridiculed talking animals show of the last decade sometimes have a hard time being taken seriously,What show does Dina want to get a role on?,A. "Law and Order",B. "There's Pierre",C. The talking animals show,D. A show about Irish and Italian people,A. "Law and Order",no,7.215,,,,,0,9,9,9,954.6230726670003,,,,,,,,,,,,956.2967243750002,956.3124171246668,956.3099022920003,963.532560208,963.5350988749999,963.5463137920003,963.5557765000001,963.5557765000001,994.4317792500003,Narrator is considering quitting? someone asks her if she'll regret it. she says I don't know. ,1,[30.883868667000115],[30.88387179199981],,,,,,,,954.6135284170002,954.6230726670003,954.6230726670003,954.6230726670003,956.2965112080003,1,[1.6800837909995607],[1.6800865829995928],,,,,p_1,001,2024-03-26_13h11.55.322,speech_rate,2023.2.3,None,2024-03-26 13h12.06.136700 -0700,
,Someday_8_condition-4x.wav,Someday__Someday__Maybe__Unabridged___File_007_of_116_1.wav,And one accomplishment a year wasn't exactly what I had in mind Still wedged halfway beneath the bed it takes all my strength to push a barely used roller blade out of the way At this point I'm just sweeping my arm back and forth making the same movement under my bed as I would if making a snow angel only the accumulated junk is a lot harder to move I give up for a moment resting my cheek against the cool wooden floor with a sigh Do you have any idea how few actors make it people always say,What does the narrator push out of the way?,A. Roller blades,B. Snow angel drawings,C. Junk that's hard to move,D. Cool wooden floor,A. Roller blades,no,7.295,,,,,0,10,10,10,994.4418156670001,,,,,,,,,,,,995.4821802920003,995.4979512086666,995.496273208,1002.7921935000002,1002.7969705000003,1002.8081636670001,1002.817945083,1002.817945083,1036.3180152500001,Narrator reflects on something and then pushes some object as hard as she cans. "Do you know what other people will say?" she exclaims.,1,[33.50826074999986],[33.50826416700011],,,,,,,,994.4321027080002,994.4418156670001,994.4418156670001,994.4418156670001,995.4819840830003,1,[1.0469672499998524],[1.0469696249997469],,,,,p_1,001,2024-03-26_13h11.55.322,speech_rate,2023.2.3,None,2024-03-26 13h12.06.136700 -0700,
,Someday_12_condition-3-5x.wav,Someday__Someday__Maybe__Unabridged___File_008_of_116_4.wav,Of course the wedding's not until June but if you wanna stay at the Sands by the shore she said to book early Okay thanks Franny I'm worried about you Why Well from my initial calculations this new telephone identification system could save you upwards of 20 to 25 seconds per day I'm concerned about how you'll adjust to all the new free time Har har Also one of my students says there's a show called Friends Apparently it's a popular one Maybe you should try to apply for that,What does the narrator's father joke about regarding caller ID?,A. The invention of the telephone,B. The inconvenience of caller ID,C. The potential time saved with caller ID,D. The popularity of caller ID,C. The potential time saved with caller ID,no,9.2875,,,,,0,11,11,11,1036.325611125,,,,,,,,,,,,1037.7344957920002,1037.7502390836667,1037.7508032080002,1047.045079625,1047.048592125,1047.059811458,1047.0695585,1047.0695585,1132.0900398750002,"Someone, maybe Jane, is worried how narrator will adjust to the new situation. They cite some calculations with on the order of 100,000 days  and say it will be a lot. They say that friends have been talking about a new show called  "friends" and say the narrator should maybe apply for that.",1,[85.02848712500008],[85.02848995800014],,,,,,,,1036.318427333,1036.325611125,1036.325611125,1036.325611125,1037.7343052920003,1,[1.4151588749996336],[1.415161416999581],,,,,p_1,001,2024-03-26_13h11.55.322,speech_rate,2023.2.3,None,2024-03-26 13h12.06.136700 -0700,
,Someday_69_condition-2x.wav,Someday__Someday__Maybe__Unabridged___File_033_of_116_3.wav,Mmm let me see Carol puts on the glasses that hang on a chain around her neck and brings her face just inches from mine I hold very still as if I'm being examined in a doctor's office Well you have some freckles it's true I don't think they're distracting though I don't see them as a problem but I can even out your skin tone if that's what concerns you Carol sighs I don't think she likes me Okay great whatever you think thanks Want a magazine,What does Carol suggest to the main character regarding her freckles?,A. Cover them up with makeup,B. Embrace them as unique,C. Remove them with a cream,D. Get freckle tattoos,A. Cover them up with makeup,no,14.785,,,,,0,12,12,12,1132.1153874170002,,,,,,,,,,,,1133.5217732500003,1133.5536919163335,1133.5472308330002,1148.3214907920003,1148.345394792,1148.355875375,1148.365909417,1148.365909417,1187.993684583,"Doctor says to narrator, yes you do in fact have freckles, and says htey're not a problem. Narrator sighs. Doctor says they could even out hteheri skin tone; also they offer a magazine.",1,[39.635939667],[39.635942707999675],,,,,,,,1132.090442083,1132.1153874170002,1132.1153874170002,1132.1153874170002,1133.521540042,1,[1.427981957999691],[1.4279845409996597],,,,,p_1,001,2024-03-26_13h11.55.322,speech_rate,2023.2.3,None,2024-03-26 13h12.06.136700 -0700,
,Someday_141_condition.wav,Someday__Someday__Maybe__Unabridged___File_088_of_116_1.wav,"Pink eye I keep repeating the phrase as if that will somehow make it disappear from Jane's face pink eye you have pink eye How can you be sure? Well by looking in the mirror for one thing, but maybe you just have something in your eye or allergies. Sorry Franny I've had it before this is what it looks like. It's really contagious. There's no way I can go Jane was going to be my date for Katie's wedding Jane had arranged the rental car in her name Jane has pink eye if you can't go I can't go",What does Jane have?,A. Cold,B. Pink eye,C. Flu,D. Bruises,B. Pink eye,yes,30.02221875,,,,,0,13,13,13,1188.00406675,,,,,,,,,,,,1189.2467907920002,1189.295417875,1189.2892893750002,1219.321112458,1219.325411125,1219.3466449170003,1219.3564117080002,1219.3564117080002,1258.197243458,"Jane has pink eye and is convincing the narrator that she has it. The narrator and Jane made plans to go to a wedding together, but everything is in Jane's name. Jane can't go because of their pink eye, and the narrator has some tough luck.",1,[38.848893667000084],[38.84889625000005],,,,,,,,1187.994080833,1188.00406675,1188.00406675,1188.00406675,1189.246578208,1,[1.2486992500002998],[1.2487017500002366],,,,,p_1,001,2024-03-26_13h11.55.322,speech_rate,2023.2.3,None,2024-03-26 13h12.06.136700 -0700,
,Someday_59_condition-2x.wav,Someday__Someday__Maybe__Unabridged___File_028_of_116_1.wav,It's all sort of a a vacuum isn't it Yes it can be I guess Everett isn't saying anything I haven't thought before but there's something so depressing in her description Something less than comforting in her attempt to be understanding in My work ever it says in mergers and amalgamations We're seeing a real boom Lbo's are still the cornerstone of the business obviously but the increase in global capital flows is translating to even more revenue,What does Everett's description sound like to the narrator?,A. Comforting,B. Understanding,C. Concerned,D. Depressing,D. Depressing,yes,14.995,,,,,0,14,14,14,1258.204885625,,,,,,,,,,,,1259.6809434170002,1259.6965695836666,1259.701521833,1274.6905495419999,1274.699153375,1274.71003175,1274.718980333,1274.718980333,1321.467794208,"The narrator says no way it can feel like a vacuum like this. But her friend insists; in their line of work (mergers and acquisitions), they're seeing a big boom in revenue flows and something about bank finance stuff.",1,[46.75604633299963],[46.756049207999695],,,,,,,,1258.1976768330003,1258.204885625,1258.204885625,1258.204885625,1259.6807365000002,1,[1.4822527500000433],[1.4822552919999907],,,,,p_1,001,2024-03-26_13h11.55.322,speech_rate,2023.2.3,None,2024-03-26 13h12.06.136700 -0700,
,Someday_131_condition-2-5x.wav,Someday__Someday__Maybe__Unabridged___File_058_of_116_1.wav,It sounds ominous For a minute I stare into the camera which is set up on a tripod facing the chair Then I realize that if the camera sees everything it's seeing me now stare dumbly into it I've had cameras at auditions before of course but for commercials you generally look directly into them a man versus machine staring contest Today however I'm going to be reading with a person while the camera regards me from another angle and I'm supposed to pretend that doesn't make me feel self conscious,How does the camera make the narrator feel?,A. Self conscious,B. Excited,C. Motivated,D. Emotional,A. Self conscious,yes,13.179875,,,,,0,15,15,15,1321.477009208,,,,,,,,,,,,1323.217863958,1323.2334917496669,1323.2384685,1336.4216745420001,1336.424645667,1336.434763083,1336.444876667,1336.444876667,1379.9045532080002,"Narrator has seen cameras in auditions before, but mostly for commerciasl where they stare the camera in the face in a person v achine staring contest. But this time she is facing a person with the camera off to the side and this is making her self-conscious",1,[43.467954958000064],[43.467957874999684],,,,,,,,1321.4681667080001,1321.477009208,1321.477009208,1321.477009208,1323.2176551250002,1,[1.7472547919996941],[1.7472573340000963],,,,,p_1,001,2024-03-26_13h11.55.322,speech_rate,2023.2.3,None,2024-03-26 13h12.06.136700 -0700,
,Someday_15_condition.wav,Someday__Someday__Maybe__Unabridged___File_009_of_116_3.wav,Whenever Jane talks about Russell Blakely all I can picture is that line everybody was quoting from his last movie Steel Entrapment where he calls out to Cordelia Biscayne honey I'm home while hanging by one hand from the landing gear of a helicopter bare chested Today's special is from the set of Kill Time an assortment of bagels that were only out on the craft service table for about three hours but are not sadly accompanied by cream cheese and that Chinese rice thing that Dan likes which I don't think was too aggressively sneezed upon,What does Russell Blakely calls out to Cordelia Biscayne in the movie Steel Entrapment?,A. "Sweetie I'm out",B. "Baby I'm back",C. "Darling I've arrived",D. "Honey I'm home",D. "Honey I'm home",no,29.3,,,,,0,16,16,16,1379.9133223330002,,,,,,,,,,,,1400.489169875,1400.5214162503332,1400.5235232920002,1429.8334482500002,1429.836345417,1429.8570241670002,1429.866889667,1429.866889667,1484.326313667,"Narrator says when some famous actor ismentioned, all she can think about is that line from their recent movie honey i'm home arriving by helicopter bare chested.
Then someoene describes how they brought bagels and some noodles that Dan likes, tat haven't been sneezed upon
",1,[54.46745229199996],[54.46745491699994],,,,,,,,1379.904957,1379.9133223330002,1379.9133223330002,1379.9133223330002,1400.488952542,1,[20.58154462499988],[20.58154729199987],,,,,p_1,001,2024-03-26_13h11.55.322,speech_rate,2023.2.3,None,2024-03-26 13h12.06.136700 -0700,
,Someday_111_condition-2x.wav,Someday__Someday__Maybe__Unabridged___File_048_of_116_4.wav,Where would he have gotten the picture You see them on the street sometimes I don't know I'm just saying It's occurred to me Because other than him that one very famous person do you recognize anyone else on that wall Well there's that cast photo from Cats with all the people in their cat costumes I don't recognize them individually but as a group they seem authentic But besides the somewhat believable cats Wait yes There's that actress My mother loved her She was on that detective show in the 60s,What are the narrator and her friend discussing on the wall?,A. A picture of a famous person,B. A cast photo from the musical Cats,C. A detective show from the '60s,D. Pictures of people on the street,A. A picture of a famous person,no,14.755,,,,,0,17,17,17,1484.3344963330003,,,,,,,,,,,,1485.710555167,1485.7261310416666,1485.73134275,1500.4874163750003,1500.490633958,1500.5011435,1500.5107895419999,1500.5107895419999,1525.579767292,Narrator and someone else are gazing at photos on a wall and reasoning about whether some other person would have recognized the actors in them.,1,[25.076757040999837],[25.076759665999816],,,,,,,,1484.3266436669999,1484.3344963330003,1484.3344963330003,1484.3344963330003,1485.710338833,1,[1.3828430420003315],[1.382845584000279],,,,,p_1,001,2024-03-26_13h11.55.322,speech_rate,2023.2.3,None,2024-03-26 13h12.06.136700 -0700,
,Someday_35_condition-3x.wav,Someday__Someday__Maybe__Unabridged___File_020_of_116_0.wav,Who put that there Oh No is that what I said Yes that was it I have no idea why it doesn't even make sense Who put that there How stupid I just couldn't think of anything else They laughed though I think they laughed Maybe they gasped in horror No they definitely laughed when I said that They gasped when I fell that's what it was Was it a gasp of disgust were they merely expressing concern for my safety I can't remember,What does the narrator wonder about the audience's reaction?,A. Whether they laughed or gasped,B. Whether they cried or screamed,C. Whether they left the play,D. Whether they were distracted,A. Whether they laughed or gasped,no,11.04375,,,,,0,18,18,18,1525.604509208,,,,,,,,,,,,1526.562610625,1526.5781631666669,1526.579963333,1537.6476715000001,1537.627207583,1537.6374205,1537.6476715000001,1537.6476715000001,1563.4651943750002,Narrator vents about how they were tryng to be funny and said something that they regret. But they're trying to console themselves. Gas was mentioned.,1,[25.82589145899965],[25.825894416999745],,,,,,,,1525.5801926249999,1525.604509208,1525.604509208,1525.604509208,1526.562419,1,[0.9799452089996521],[0.9799558339996111],,,,,p_1,001,2024-03-26_13h11.55.322,speech_rate,2023.2.3,None,2024-03-26 13h12.06.136700 -0700,
,Someday_147_condition-3-5x.wav,Someday__Someday__Maybe__Unabridged___File_092_of_116_5.wav,"It's the perfect thing to say, and I lean my head on his shoulder, grateful not to have to explain myself further. My cousin Katie makes her way across the dance floor, hand in hand with her new husband. She's still in her wedding gown but has traded her heels for high-top sneakers, more comfortable for dancing. She hugs everyone as she passes, and her groom shakes hands, and sometimes they join in to dance with some of the couples on the floor. When she spots me, she leaves his side for a moment, reaching out to grab my hand and putting her arm around Dan.",What is cousin Katie wearing?,A. Sneakers,B. High heels,C. Loafers,D. Sandals,A. Sneakers,yes,10.12971875,,,,,0,19,19,19,1563.473780958,,,,,,,,,,,,1564.8150106250002,1564.8305654166666,1564.8316752920002,1574.956941917,1574.9628315420002,1574.973920917,1574.9836429580002,1574.9836429580002,1614.50108075,Narrator mulls over someone elses dance ability and energy at some party. The other  invites her to join and dance "arm around Dan",1,[39.525300042000254],[39.52530312499994],,,,,,,,1563.465640875,1563.473780958,1563.473780958,1563.473780958,1564.814793792,1,[1.3469099580001966],[1.3469125830001758],,,,,p_1,001,2024-03-26_13h11.55.322,speech_rate,2023.2.3,None,2024-03-26 13h12.06.136700 -0700,
,Someday_94_condition-4x.wav,Someday__Someday__Maybe__Unabridged___File_041_of_116_1.wav,He doesn't say anything so I feel obligated to keep going It's as if I'm not driving this train anymore I'm just holding on trying not to crash completely I've always loved the theater I say Thank God It isn't original but it's TRUE at least My dad would take me when I was a kid to whatever little show was playing in our town in Connecticut and we'd also see most of what was in New Haven and sometimes we'd come into the city and it wasn't just theater It was ballet and music and modern dance too I pause,What is the narrator's childhood connection to the theater?,A. She used to perform in school plays,B. Her father would take her to various shows,C. She always dreamed of becoming an actor,D. She was part of a local theater group,B. Her father would take her to various shows,no,7.4825,,,,,0,20,20,20,1614.508738833,,,,,,,,,,,,1615.368086625,1615.3836162916668,1615.3820014170003,1622.8773604170003,1622.882533917,1622.8928012920003,1622.902764917,1622.902764917,1644.7862995830003,pause. what am i supposed to do? narrator says.,1,[21.891637958000047],[21.89164037499995],,,,,,,,1614.50141225,1614.508738833,1614.508738833,1614.508738833,1615.367869542,1,[0.8655426250002165],[0.8655450420001216],,,,,p_1,001,2024-03-26_13h11.55.322,speech_rate,2023.2.3,None,2024-03-26 13h12.06.136700 -0700,
,Someday_130_condition.wav,Someday__Someday__Maybe__Unabridged___File_057_of_116_2.wav,Are you sure you're here for Ebony Breeze perfume What Oh no I'm here for Pine Tree Lodge I thought so You're on the wrong floor P L is on 34 one more up Oh oh thank God I sputter I mean I didn't I got out too I was confused because I gesture helplessly to the room behind me,What mistake does the narrator realize she has made?,A. Coming to the wrong appointment for a perfume,B. Misunderstanding the product she is endorsing,C. Being on the incorrect floor for her intended destination,D. Forgetting the name of the perfume she is promoting,C. Being on the incorrect floor for her intended destination,no,29.10465625,,,,,0,21,21,21,1644.7948557920001,,,,,,,,,,,,1646.0030897500003,1646.0352181663336,1646.0363064169999,1675.1470752500002,1675.1521852500002,1675.173779083,1675.183185042,1675.183185042,1708.773376458,"narrator attempts to buy time by pretending they were here for the perfume sold on this floor, but the receptionist reminds them that the perfume they're looking for is on the floor above. IT's awkard.",1,[33.59779812499983],[33.59780054099974],,,,,,,,1644.7866916250002,1644.7948557920001,1644.7948557920001,1644.7948557920001,1646.002823208,1,[1.2138001250000343],[1.2138027500000135],,,,,p_1,001,2024-03-26_13h11.55.322,speech_rate,2023.2.3,None,2024-03-26 13h12.06.136700 -0700,
,Someday_47_condition-3-5x.wav,Someday__Someday__Maybe__Unabridged___File_024_of_116_3.wav,I almost feel as though I belong in this crowd tonight or that it's possible I could someday Absolute agency You're kidding me Look at you Dina hugs me hard when I tell her the news her perfectly polished red nails squeezing my arms Rockstar And another agency called Sparks Sparks That's Barney Sparks It's just him He's the whole office He's great He's been around a long time Dina holds her wine glass up already half empty and smiles,What does Dina do when the narrator tells her the news?,A. She hugs her,B. She shakes her hand,C. She kisses her,D. She cheers for her,A. She hugs her,no,9.39375,,,,,0,22,22,22,1708.782716333,,,,,,,,,,,,1709.940271625,1709.9557320416666,1709.9564145830002,1719.349935208,1719.353635708,1719.3644420420003,1719.37399425,1719.37399425,1747.37573925,"Narrator thinks about joining a new agency called Sparks. It's a one-man-show, and he's great.",1,[28.009310457999618],[28.009313124999608],,,,,,,,1708.7738363750002,1708.782716333,1708.782716333,1708.782716333,1709.9400387920002,1,[1.1639182919998348],[1.163920916999814],,,,,p_1,001,2024-03-26_13h11.55.322,speech_rate,2023.2.3,None,2024-03-26 13h12.06.136700 -0700,
,Someday_78_condition-2x.wav,Someday__Someday__Maybe__Unabridged___File_036_of_116_0.wav,And I would like to help you get started So he claps his hands together once for emphasis as if he's just pulled a rabbit out of his hat and wants to make sure the audience sees it I'm stunned He just said he wants to work with me I thought it would be so much harder to get anyone in the professional world to say that ever An actual real life agent wants to represent me I don't have to do this alone I'm shocked What is that,What is the narrator's reaction to the agent's offer?,A. She is excited and grateful,B. She is stunned,C. She is uninterested in the offer,D. She expected the offer,B. She is stunned,no,14.085,,,,,0,23,23,23,1747.3836693330002,,,,,,,,,,,,1748.0918571670002,1748.107374291667,1748.1131213330002,1762.1884360830002,1762.2060657079999,1762.216347292,1762.225896833,1762.225896833,1800.228641542,"Narrator is shocked, thinking she doesn't have to do this alone, because this man who represents an agency wants to work with her. He clasps his hands so welL!",1,[38.01039475000016],[38.010397792000276],,,,,,,,1747.376182917,1747.3836693330002,1747.3836693330002,1747.3836693330002,1748.091680917,1,[0.7145398339998792],[0.714542333999816],,,,,p_1,001,2024-03-26_13h11.55.322,speech_rate,2023.2.3,None,2024-03-26 13h12.06.136700 -0700,
,Someday_81_condition-3x.wav,Someday__Someday__Maybe__Unabridged___File_037_of_116_2.wav,He's looking for meaning in his life and his art Oh is that all Yep Just the plain old everyday quest for the meaning of life A beautiful actress wearing glasses says something to the director played by Marcello Mastriani Her mouth keeps moving even after her voice has stopped The sink seems off It was the style of Italian filmmakers of the day to dub all the dialogue in later Dan explains eyes still pinned to the screen,What was the style of Italian filmmakers?,A. Dubbing all the dialogue later,B. Using a lot of jump cuts,C. Prioritizing cheap productions,D. Casting tall leads,A. Dubbing all the dialogue later,no,11.33625,,,,,0,24,24,24,1800.253625958,,,,,,,,,,,,1801.0783924170003,1801.0938862496669,1801.0961854170002,1812.438277125,1812.443354917,1812.453892708,1812.4644662080002,1812.4644662080002,1836.7808523750002,He's just searching for the meaning of life. The two conversers observe a pretty actress say something to the director in secret.,1,[24.32513916700009],[24.325141583999994],,,,,,,,1800.2290665420003,1800.253625958,1800.253625958,1800.253625958,1801.078208708,1,[0.8464907920001679],[0.8464932500000941],,,,,p_1,001,2024-03-26_13h11.55.322,speech_rate,2023.2.3,None,2024-03-26 13h12.06.136700 -0700,
,Someday_89_condition-2x.wav,Someday__Someday__Maybe__Unabridged___File_039_of_116_2.wav,Excuse me can you tell me what day of the week it is they'll say and laugh I'm leaning awkwardly against the wall near the door not sure what to do while I wait Maybe I should sit Plenty of people use sitting as a way to pass the time I look at the giant table and multitude of chairs Unless a bunch of people are going to join us this seems a strange room to choose for a meeting of two Yes I think I'll sit But I'm not sure which spot to choose I'm not totally sure I even want to sit yet,Why does the narrator feel uncertain about sitting in the room?,A. She is worried about her outfit,B. She doesn't know which chair to choose,C. She perefers to stand,D. She has somewhere else to be,B. She doesn't know which chair to choose,yes,14.37,,,,,0,25,25,25,1836.7901691250001,,,,,,,,,,,,1837.2642372080002,1837.2963161253335,1837.2864528329999,1851.657256625,1851.677900542,1851.688302333,1851.6982650830003,1851.6982650830003,1886.050412542,Narrator is anxious about where to sit in this large room with many seats (just like Rebecca Black in the song "Friday"). She waits nervously for her meeting for two.,1,[34.360073792000094],[34.3600769589998],,,,,,,,1836.7812260830003,1836.7901691250001,1836.7901691250001,1836.7901691250001,1837.263976083,1,[0.48046925000016927],[0.48047195800018017],,,,,p_1,001,2024-03-26_13h11.55.322,speech_rate,2023.2.3,None,2024-03-26 13h12.06.136700 -0700,
,Someday_99_condition-3-5x.wav,Someday__Someday__Maybe__Unabridged___File_044_of_116_1.wav,There are the things we all know we're supposed to have monologue comedic and dramatic song up tempo and ballad but there's a serious lack of information beyond that Today I need a funny laugh but what else should I know how to do Roller skating maybe That seems to come up a lot lately Jokes I should know more jokes in case I ever get asked if I've heard any good jokes lately but I'm not a good joke teller I always mess up the endings Maybe I should try to memorize a knock knock joke at least just in case,What does the narrator feel she need to learn for auditions?,A. Harseback riding,B. Jokes,C. Monologues,D. Ballads,B. Jokes,yes,8.63125,,,,,0,26,26,26,1886.058072958,,,,,,,,,,,,1887.366828125,1887.3822777086666,1887.38201125,1896.0084637080001,1896.014306625,1896.0253976669999,1896.0349520830002,1896.0349520830002,1917.569292542,"Narratorwants more fun in her life. She thinks maybe she could tell jokes, but is anxious about being bad at them.",1,[21.542062708999765],[21.54206516699969],,,,,,,,1886.0508445420003,1886.058072958,1886.058072958,1886.058072958,1887.366635833,1,[1.3148183329999483],[1.3148207909998746],,,,,p_1,001,2024-03-26_13h11.55.322,speech_rate,2023.2.3,None,2024-03-26 13h12.06.136700 -0700,
,Someday_102_condition.wav,Someday__Someday__Maybe__Unabridged___File_045_of_116_0.wav,Well it's just mainly a gag you know says the man in glasses a gag I repeat Yes a running gag like how she laughs on the nanny But we don't want it to sound anything like her laugh the man in the back of the room says emphatically Yes of course it's a laugh That's all her own just a girl who laughs funny for no particular reason the man with glasses says Okay Thanks and sorry but what do I do do,What is the character's laugh intended to be in the audition scene?,A. A running gag,B. A natural laugh,C. A villan's laugh,D. A serious and dramatic laugh,A. A running gag,no,28.03,,,,,0,27,27,27,1917.5785322080003,,,,,,,,,,,,1918.552067625,1918.5841578753332,1918.58410475,1946.6517138750003,1946.6201115420001,1946.6412928330003,1946.6517138750003,1946.6517138750003,1986.155595208,A man with glasses tries to excuse a woman's weird laugh as a running gag. Another man says we don't want the laugh to sound like hers. Narrator asks what to do.,1,[39.512312458],[39.51231541600009],,,,,,,,1917.569742167,1917.5785322080003,1917.5785322080003,1917.5785322080003,1918.551835,1,[0.9797260000000279],[0.9797284159999435],,,,,p_1,001,2024-03-26_13h11.55.322,speech_rate,2023.2.3,None,2024-03-26 13h12.06.136700 -0700,
,Someday_42_condition-3x.wav,Someday__Someday__Maybe__Unabridged___File_023_of_116_0.wav,There will be another showcase next year but my deadline expires way before then and I refuse to break it I refuse to become one of those people who can't accept the truth that it just isn't going to happen for them Something cold grabs my heart and my mouth falls open Maybe I've already become one of them while I wasn't looking Maybe I can't accept the truth that it just isn't going to happen for me Maybe I already know but I can't admit it How many more days of waiting do I really need before I have to face facts,When will be the next showcase?,A. Next year,B. Next month,C. Next week,D. Next fall,A. Next year,yes,11.055,,,,,0,28,28,28,1986.164237833,,,,,,,,,,,,1987.172770583,1987.1881572086668,1987.1903010000003,1998.2391116250003,1998.2513005829999,1998.2623878750003,1998.271819792,1998.271819792,2022.7916763330002,"Narrator doesn't want to be the kind of person who misses deadlines, or worse, the narrator doesn't want to be come one of THEM.",1,[24.52735541600032],[24.527366000000256],,,,,,,,1986.155947167,1986.164237833,1986.164237833,1986.164237833,1987.172550083,1,[1.0141806249998808],[1.0141831249998177],,,,,p_1,001,2024-03-26_13h11.55.322,speech_rate,2023.2.3,None,2024-03-26 13h12.06.136700 -0700,
,Someday_24_condition-4x.wav,Someday__Someday__Maybe__Unabridged___File_015_of_116_0.wav,Thanks I say and then for no reason Any adjustments Stupid stupid Don't ask to do it again when you don't know what you did in the first place They both cock their heads at the same angle like two puppies in a pet store window Then they nod to each other again Sure yeah let's do one more just for kicks Yeah I mean that was great but let's in this one really have fun with it but also take it seriously like you did Yeah serious but fun like you're talking to your best friend Yeah like you're sharing a secret with your best friend,What do the casting directors suggest after the narrator's audition?,A. They compliment her performance,B. They ask her to do it in a more fun but serious way,C. They reject her immediately,D. They offer her the role,B. They ask her to do it in a more fun but serious way,no,7.475,,,,,0,29,29,29,2022.7995480420002,,,,,,,,,,,,2023.3082605420002,2023.323632416667,2023.3235585,2030.791540167,2030.801619833,2030.811907,2030.821313958,2030.821313958,2037.1922540000003,Narrator thinks sharing is fine.,1,[6.378408083000068],[6.378410499999973],,,,,,,,2022.792124708,2022.7995480420002,2022.7995480420002,2022.7995480420002,2023.308036833,1,[0.5148544580001726],[0.5148569160000989],,,,,p_1,001,2024-03-26_13h11.55.322,speech_rate,2023.2.3,None,2024-03-26 13h12.06.136700 -0700,
,Someday_38_condition-2x.wav,Someday__Someday__Maybe__Unabridged___File_021_of_116_0.wav,Standing this close to him for the second time it occurs to me that his scarf is homemade and I feel a pang of jealousy wondering who knit it for him I like to be cold I say in what I hope is an appealing yet mysterious way that will make him regret not calling me while trying not to shiver Did you were you just in there I ask eyeing him carefully please God say no In the audience Yeah I was standing in the back It's over They just had curtain call,What does the narrator feel jealous about?,A. The actor's performance,B. The actor's homemade scarf,C. The audience's response,D. The actor's phone call,B. The actor's homemade scarf,no,14.79,,,,,0,30,30,30,2037.2171448750003,,,,,,,,,,,,2037.741981125,2037.7573864996666,2037.7629398330002,2052.552009625,2052.555725667,2052.5762982080005,2052.586123375,2052.586123375,2089.662147,"narrator attempts to flirt with man who is wearing a handmade scarf. "I like being cold, she says." The man had already not called her back. It isn't working.",1,[37.08384029099989],[37.08384291599987],,,,,,,,2037.1927038330002,2037.2171448750003,2037.2171448750003,2037.2171448750003,2037.741797583,1,[0.5464177909998398],[0.5464202079997449],,,,,p_1,001,2024-03-26_13h11.55.322,speech_rate,2023.2.3,None,2024-03-26 13h12.06.136700 -0700,
,Someday_125_condition-3-5x.wav,Someday__Someday__Maybe__Unabridged___File_054_of_116_5.wav,I sit up as if he might be able to see through the telephone that I was lying down at an undignified hour still in the shorts and tank top I slept in I clear my throat and try to make my voice sound more awake It's me It's her That doesn't sound right It is I Hello I Did I wake you up No I'm awake Have a cold Oh shoot Is it a really bad one Joe has an audition for you I've just made an extremely speedy recovery Great Great,What does the narrator say she has?,A. A cold,B. A headache,C. A sore throat,D. A flu,A. A cold,no,9.353125,,,,,0,31,31,31,2089.6718405419997,,,,,,,,,,,,2090.8789224580005,2090.894237916667,2090.8957630000004,2100.254935958,2100.2596730000005,2100.270716917,2100.2802961670004,2100.2802961670004,2123.197191542,Narrator discusses how she recovered from a cold very quickly. Almost too quickly....,1,[22.924600250000367],[22.924602667000272],,,,,,,,2089.662545917,2089.6718405419997,2089.6718405419997,2089.6718405419997,2090.878644167,1,[1.213386458000059],[1.213388957999996],,,,,p_1,001,2024-03-26_13h11.55.322,speech_rate,2023.2.3,None,2024-03-26 13h12.06.136700 -0700,
,Someday_17_condition-2-5x.wav,Someday__Someday__Maybe__Unabridged___File_011_of_116_0.wav,Are you sure you won't come back with me now He asked last time as I waited with him at his gate at the airport I just not yet Okay he said and then with a wink call me when you change your mind Sometimes when the tips are bad and my feet ache I wonder why I'm putting off the inevitable I wonder why I don't just pick up the phone and move to Chicago rather than continuing to attempt something that has a less than 5 success rate,What does the narrator contemplate while dealing with the hardships of her current situation?,A. Whether to continue waiting at the airport,B. Whether to ask for better tips to ease the pain in her feet,C. Why she is delaying a significant change in her life,D. Why she isn't more successful in her current endeavors,C. Why she is delaying a significant change in her life,no,12.569375,,,,,0,32,32,32,2123.2050835420005,,,,,,,,,,,,2123.6805467080003,2123.695879541667,2123.699983208,2136.2732889999997,2136.2748352500003,2136.285756292,2136.2953886249998,2136.2953886249998,2162.3495486250004,"Man offers to narrator to come with him to Chicago. Narrator says no, but ponders how regretful she feels. After all, it's only a 2.5% succeess rate there.",1,[26.06174266700009],[26.061745791999783],,,,,,,,2123.19764725,2123.2050835420005,2123.2050835420005,2123.2050835420005,2123.6803256250005,1,[0.4815907080001125],[0.4815931250000176],,,,,p_1,001,2024-03-26_13h11.55.322,speech_rate,2023.2.3,None,2024-03-26 13h12.06.136700 -0700,
,Someday_75_condition-4x.wav,Someday__Someday__Maybe__Unabridged___File_035_of_116_3.wav,He doesn't have the greatest sense of his own volume He never raises his voice to people intentionally but he's always loud He says volume is his trademark and the community respects him for it Francis Banks he says again Great name a classic You can bank on banks I can see the headline in the Hollywood Reporter He takes a deep rattly breath which he seems to have to do any time he strings more than two sentences together His breathing is labored and like his voice astonishingly loud A classy name for a classy gal Look at you,How is Barney Sparks' sense of volume described?,A. Quiet and reserved,B. Loud and unintentional,C. Moderate and controlled,D. Variable and unpredictable,B. Loud and unintentional,yes,8.1425,,,,,0,33,33,33,2162.3743077500003,,,,,,,,,,,,2162.933233875,2162.948526499667,2162.9483097499997,2171.08117375,2171.095525042,2171.1057885830005,2171.115754792,2171.115754792,2182.800900917,His voice is actually loud. Narrator is angry.,1,[11.692950874999951],[11.692953333999867],,,,,,,,2162.3499941669997,2162.3743077500003,2162.3743077500003,2162.3743077500003,2162.933009458,1,[0.580520458999672],[0.5805227920000107],,,,,p_1,001,2024-03-26_13h11.55.322,speech_rate,2023.2.3,None,2024-03-26 13h12.06.136700 -0700,
,Someday_113_condition-2x.wav,Someday__Someday__Maybe__Unabridged___File_050_of_116_0.wav,She lives I think I need a manager Why do you need a manager I thought you just got an agent I did but they aren't getting me any auditions If you have no auditions what's there to manage A manager would help me get auditions How could a manager do that when the agents can't Well managers have fewer people so they can focus just on you And why do you have an agent at all Why not just have a manager You have to have an agent They're the only ones allowed to negotiate contracts Agents are franchised managers aren't,Why does the narrator want to get a manager?,A. To help negotiate contracts,B. To get auditions,C. Because agents are expensive,D. To manage the finances,B. To get auditions,no,14.00996875,,,,,0,34,34,34,2182.8254203750002,,,,,,,,,,,,2183.4010865830005,2183.416412416667,2183.421210458,2197.4272530830003,2197.4333290000004,2197.4436224580004,2197.453903292,2197.453903292,2227.3835914170004,Narrator discusses the differences between a manager and an agent with another person. Agents are franchised and the only ones whoc an negotaiate contracts.,1,[29.937972291999813],[29.937974624999697],,,,,,,,2182.8013247500003,2182.8254203750002,2182.8254203750002,2182.8254203750002,2183.400870042,1,[0.5970884580001439],[0.5970910410001125],,,,,p_1,001,2024-03-26_13h11.55.322,speech_rate,2023.2.3,None,2024-03-26 13h12.06.136700 -0700,
,Someday_126_condition.wav,Someday__Someday__Maybe__Unabridged___File_055_of_116_1.wav,What luck maybe this is going to be okay Maybe I'm not repulsive and mushy after all I'm a genius who has been in studious self imposed exile whilst honing my craft waiting for this day to come with patience and nobility It was meant to be Yes I know it I know it a little too well actually Great then just get over there as quickly as you can They're closing the session at 2 p m I'll fax you the sides and the appointment info Just call us with any questions and break a leg,What is the narrator's attitude towards her own preparation and opportunity?,A. Uncertain and self-critical about her appearance and skills,B. Confident and self-assured about the effort put into her craft,C. Indifferent and unprepared for the upcoming opportunity,D. Overwhelmed and doubtful about meeting the appointment on time,B. Confident and self-assured about the effort put into her craft,no,28.41828125,,,,,0,35,35,35,2227.3938713750003,,,,,,,,,,,,2228.734278125,2228.766396666334,2228.7607177500004,2257.180394,2257.2004732080004,2257.2115817080003,2257.2218119999998,2257.2218119999998,2282.339825833,narrator sarcastically remarks about how they might actually be agenius. Other person wil fax them info and says break a leg on their audition.,1,[25.12605929199981],[25.126061833999756],,,,,,,,2227.3838997499997,2227.3938713750003,2227.3938713750003,2227.3938713750003,2228.7340977920003,1,[1.3492076249999627],[1.3492097500002274],,,,,p_1,001,2024-03-26_13h11.55.322,speech_rate,2023.2.3,None,2024-03-26 13h12.06.136700 -0700,
,Someday_145_condition-2-5x.wav,Someday__Someday__Maybe__Unabridged___File_092_of_116_2.wav,"Actually, it's just Franny, I say, and my voice sounds strangely cold. Of course, so sorry, I knew that. I guess I'm a little nervous to finally meet you, she admits shyly, and my father gazes at her, delighted. Dinner arrives and I finally manage to sputter out a few sentences as I pick at my burger. The Finnegans always have a barbecue instead of a caterer, and usually I love how homey and informal and comforting the food is, but tonight I've lost my appetite.",What do the Finnegans prefer over a caterer?,A. A home cooked meal,B. Ordering take out,C. A potluck,D. A barbecue,D. A barbecue,yes,13.5599375,,,,,0,36,36,36,2282.3496332080003,,,,,,,,,,,,2283.0065917499996,2283.021858249667,2283.026815583,2296.6082731670003,2296.587864958,2296.5981048330004,2296.6082731670003,2296.6082731670003,2309.9413385,narrator introduces her father to Franny as they eat burgers for dinner.,1,[13.34125908399983],[13.341261624999788],,,,,,,,2282.3406453750003,2282.3496332080003,2282.3496332080003,2282.3496332080003,2283.0063530420002,1,[0.6632331660002819],[0.6632357500002399],,,,,p_1,001,2024-03-26_13h11.55.322,speech_rate,2023.2.3,None,2024-03-26 13h12.06.136700 -0700,
,Someday_9_condition-2-5x.wav,Someday__Someday__Maybe__Unabridged___File_008_of_116_1.wav,For the Stevie Nicks fan club Jane seriously say something helpful She tilted her head studying me carefully Honestly Franny all I can think of to say is you look like you work at a really great bakery in Maine I have class tonight after my audition so today I go for young mom meets acting class neutral black sweater black tights short black wool skirt and my Doc Martin Oxford lace up shoes Not super mom ish but practical for walking,What does Jane say the narrator looks like?,A. Like she works at a bakery,B. Like she is a movie star,C. Like she is a student at Oxford,D. Like she is a mom,A. Like she works at a bakery,no,13.155625,,,,,0,37,37,37,2309.96603625,,,,,,,,,,,,2310.741412417,2310.7566677496666,2310.7612803330003,2323.917588083,2323.9208989999997,2323.9319919170002,2323.94204075,2323.94204075,2340.392832583,Jane and narrator discuss what narrator is wearing. narrator looks like best baker in maine.,1,[16.45865241599995],[16.458655249999993],,,,,,,,2309.941674375,2309.96603625,2309.96603625,2309.96603625,2310.741189458,1,[0.7970235000002504],[0.7970260000001872],,,,,p_1,001,2024-03-26_13h11.55.322,speech_rate,2023.2.3,None,2024-03-26 13h12.06.136700 -0700,
,Someday_132_condition-3x.wav,Someday__Someday__Maybe__Unabridged___File_073_of_116_2.wav,"I place my bag down carefully, quietly, as if despite what he said, he's potentially both asleep and sick. I take my shoes off and tiptoe across the living room, up the circular metal staircase, and into my bedroom. I decide I'll call James after I shower, secretly hoping that he'll call me first. I'll wait until I'm completely ready to go out before I'll allow myself to even glance at the machine. If I don't cheat, if I'm strong, it will work. I bet he'll have called me by the time I finish getting ready.",What does the main character hope to do after getting home?,A. Call James,B. Check her email,C. Watch TV,D. Take a nap,A. Call James,yes,11.6528125,,,,,0,38,38,38,2340.4000619999997,,,,,,,,,,,,2340.9780462500003,2340.992988749667,2340.996197042,2352.652489958,2352.6581686669997,2352.66927425,2352.6797439580005,2352.6797439580005,2367.210683042,"Narartor is hoping James calls her. She showers and gets ready, trying not to call him on the phone.",1,[14.539275458999782],[14.539277874999698],,,,,,,,2340.393197333,2340.4000619999997,2340.4000619999997,2340.4000619999997,2340.9777536250003,1,[0.5832025419999809],[0.5832055830001082],,,,,p_1,001,2024-03-26_13h11.55.322,speech_rate,2023.2.3,None,2024-03-26 13h12.06.136700 -0700,
,Someday_36_condition-4x.wav,Someday__Someday__Maybe__Unabridged___File_020_of_116_1.wav,Everyone already knows everyone knows I fell they saw everything I'm humiliated What's that I say trying to buy myself some time to figure out how to respond with dignity nice class I said huh Right Everyone seems to be doing well tonight Oh Right Yes they do Did you by any chance see my monologue No sorry but I heard part of it on the monitor sound like you really went for it Oh Thanks Yes I do think I went for it,How does the narrator feel after monologue?,A. She is humiliated,B. She is satisfied,C. She is happy,D. She is moved by it,A. She is humiliated,no,7.4575,,,,,0,39,39,39,2367.2201736670004,,,,,,,,,,,,2368.228253917,2368.243477958667,2368.2440911250005,2375.703868042,2375.70496475,2375.715684625,2375.7260061669995,2375.7260061669995,2389.3293882919997,Narrator is not sure she is ready.,1,[13.611178916999961],[13.611181332999877],,,,,,,,2367.211028375,2367.2201736670004,2367.2201736670004,2367.2201736670004,2368.2280013750005,1,[1.014398958000129],[1.014401583000108],,,,,p_1,001,2024-03-26_13h11.55.322,speech_rate,2023.2.3,None,2024-03-26 13h12.06.136700 -0700,
,Someday_100_condition-3-5x.wav,Someday__Someday__Maybe__Unabridged___File_044_of_116_2.wav,Who else laughs funny It seems all I can think of are people who have completely normal ways of laughing or Fran Drescher from The Nanny but that's her laugh It's only funny the way she does it Or is that what they want Someone who can copy someone else's already funny laugh rather than trying to invent a better one Now all I can think of is the laugh from The Nanny Maybe that's what I'll do then I can't think of anything else I'll just try to do a really good version of the laugh from The Nanny The girls are coming and going out of the audition room with incredible speed,What famous laugh does the narrator consider using for the audition?,A. A laugh from a family member,B. A laugh from a friend,C. The laugh from The Nanny,D. A unique and invented laugh,C. The laugh from The Nanny,yes,9.228125,,,,,0,40,40,40,2389.3391888329998,,,,,,,,,,,,2389.846282708,2389.8614358746668,2389.862328333,2399.1175061249996,2399.096349792,2399.106644083,2399.1175061249996,2399.1175061249996,2416.1805339169996,"Narrator is trying to do a good impression of Franny's laugh, while some girls from the uadition are nearby.
",1,[17.071720124999956],[17.071722458000295],,,,,,,,2389.3298712919996,2389.3391888329998,2389.3391888329998,2389.3391888329998,2389.846045042,1,[0.5132312499999898],[0.5132340000000113],,,,,p_1,001,2024-03-26_13h11.55.322,speech_rate,2023.2.3,None,2024-03-26 13h12.06.136700 -0700,
,Someday_87_condition-2x.wav,Someday__Someday__Maybe__Unabridged___File_039_of_116_0.wav,The reception area is a soothing soft grey Everything is plush and velvet The carpet looks like shiny grey silk and the sofa is a silvery suede that appears freshly brushed as though no one has ever sat on it There's a long reception desk behind which sit two of the most beautiful people I have ever seen also swathed in grey The perfect specimen male is reading a script and the perfect specimen female is on a headset talking to someone in a British accent,How does the narrator describe the reception area of Absolute Artists?,A. It's brightly colored,B. It's cold and uninviting,C. It's plush and soothing,D. It's chaotic and messy,C. It's plush and soothing,yes,14.23996875,,,,,0,41,41,41,2416.1884816249994,,,,,,,,,,,,2416.6311389579996,2416.6630067083333,2416.6530557919996,2430.90703975,2430.91052475,2430.9326510829997,2430.942751625,2430.942751625,2448.9327376250003,Narratror describes the suede grey waiting room with two of the most beautiful people she's ever seen.,1,[17.997981541999252],[17.997983999999633],,,,,,,,2416.180991417,2416.1884816249994,2416.1884816249994,2416.1884816249994,2416.6308958749996,1,[0.44869837500027643],[0.44870083299974794],,,,,p_1,001,2024-03-26_13h11.55.322,speech_rate,2023.2.3,None,2024-03-26 13h12.06.136700 -0700,
,Someday_10_condition.wav,Someday__Someday__Maybe__Unabridged___File_008_of_116_2.wav,I've worn this combination so many times before that today my all black outfit feels a little boring a little blah What would Jane do I think to myself and pull a chunky brown leather belt from the top shelf of the closet slinging it low around my hips Finally taking weather and product into consideration I take the top part of my hair and tie it into a small black velvet scrunchie on top of my head The phone begins to ring from its place on the landing between my room and Jane's Hi Dad,What does the narrator wear to their class after the audition?,A. A black dress,B. A white t-shirt,C. A red skirt,D. A brown leather belt,D. A brown leather belt,no,28.93,,,,,0,42,42,42,2448.957325542,,,,,,,,,,,,2449.516139167,2449.547993500333,2449.55137725,2478.515281375,2478.4837841669996,2478.5049400420003,2478.515281375,2478.515281375,2498.385701333,"Narrator struggles to find what to wear, thinks what Jane would pick, and answers Dad on the phone downstairs.",1,[19.87857137499941],[19.87857379199977],,,,,,,,2448.933117083,2448.957325542,2448.957325542,2448.957325542,2449.515865458,1,[0.5802020420005647],[0.5802045830005227],,,,,p_1,001,2024-03-26_13h11.55.322,speech_rate,2023.2.3,None,2024-03-26 13h12.06.136700 -0700,
,Someday_134_condition-2x.wav,Someday__Someday__Maybe__Unabridged___File_073_of_116_4.wav,"I don't want to admit it, but I'm still half-hoping to hear from James. But then I'm struck by how bad it would feel to wait for him on the night I just learned that no one's waiting for me anymore, and that catch you later okay isn't a plan, not a real one anyway. Maybe it wouldn't be such a bad thing if James called and got no answer. Um, okay? For what? He sits up, swinging his long legs down to the floor, then rubs his eyes and squints at me as if he's not sure whether he's awake or dreaming.",How does the narrator feel about receiving a call from James?,A. She is still hopeful,B. She is sure that he won't call,C. She doesn't care about it,D. She is optimistic,A. She is still hopeful,no,15.46003125,,,,,0,43,43,43,2498.394996792,,,,,,,,,,,,2498.835481375,2498.8673649583334,2498.8594837499995,2514.328647333,2514.3334646249996,2514.343943875,2514.3544929580003,2514.3544929580003,2542.471303958,Narrator is melancholy about whether james will call back (she hopes he does) but noone is waitin for her. Man wakes up and squints at narrator.,1,[28.125129333000586],[28.12513187500008],,,,,,,,2498.3861335,2498.394996792,2498.394996792,2498.394996792,2498.835253833,1,[0.4465871660004268],[0.44659008300004643],,,,,p_1,001,2024-03-26_13h11.55.322,speech_rate,2023.2.3,None,2024-03-26 13h12.06.136700 -0700,
,Someday_95_condition.wav,Someday__Someday__Maybe__Unabridged___File_041_of_116_2.wav,Sports God no no That's hilarious to think about I laugh picturing me and my dad who have been known to spend an entire weekend sitting in the living room reading books one after the other stopping only to eat a frozen pizza or make popcorn playing tennis or skiing or kayaking down some rapids Competitive like I always made everything a game when I was a kid I have a good memory and so does my dad so we try to stump each other like try to start reciting Jabberwocky from the middle,What does the narrator and their dad often do on weekends?,A. Play sports together,B. Go kayaking down rapids,C. Reading books,D. Watch movies and eat popcorn,C. Reading books,yes,29.27996875,,,,,0,44,44,44,2542.4791765829996,,,,,,,,,,,,2543.5885755829995,2543.620360541334,2543.6213479999997,2572.9369359579996,2572.9051957499996,2572.926494417,2572.9369359579996,2572.9369359579996,2599.774420625,"Narrator recounts how her Dad and her were not athletic and preferred to spend their time reading books, playing intellectual games, and eating frozne pizza.",1,[26.845732916999623],[26.845735459000025],,,,,,,,2542.4716554999995,2542.4791765829996,2542.4791765829996,2542.4791765829996,2543.5883114999997,1,[1.1153926659999343],[1.1153950409998288],,,,,p_1,001,2024-03-26_13h11.55.322,speech_rate,2023.2.3,None,2024-03-26 13h12.06.136700 -0700,
,Someday_28_condition.wav,Someday__Someday__Maybe__Unabridged___File_017_of_116_0.wav,He has some sort of accent almost a drawl He's from the south somewhere Maybe he grew up on a farm in Texas or Georgia Maybe he had chores in the barn every day and helped his father harvest corn He still hasn't looked away from me He stands perfectly still not shifting at all I can feel myself rocking back and forth on my feet I try to stay steady like he does but it's impossible for me to do I really like your work in class I say ducking my head Oh yeah,How does the narrator feel about the person she encounters on the street?,A. She dislikes them,B. She is indifferent,C. She admires their work,D. She is terrified,C. She admires their work,no,28.1,,,,,0,45,45,45,2599.7993393750003,,,,,,,,,,,,2600.7080253329996,2600.739903916334,2600.7413151250003,2628.8344565830002,2628.8410200420003,2628.862172417,2628.8721202079996,2628.8721202079996,2645.5110793329995,Narrator thnks about how rural this rural boy really is. She compliements his work in class.,1,[16.64674762499999],[16.646750125000835],,,,,,,,2599.774897167,2599.7993393750003,2599.7993393750003,2599.7993393750003,2600.707816375,1,[0.9303961659998095],[0.9303987909997886],,,,,p_1,001,2024-03-26_13h11.55.322,speech_rate,2023.2.3,None,2024-03-26 13h12.06.136700 -0700,
,Someday_40_condition-2x.wav,Someday__Someday__Maybe__Unabridged___File_021_of_116_3.wav,Aren't you cold It's James Franklin the last person I want to see right now Nothing could make me feel worse after what happened tonight than to be reminded that a guy I gushed all over got my phone number but never called me Even after I learned that he and Penelope were some sort of couple I held my breath every day for the last two weeks while waiting for the machine to rewind hoping he'd left a message but he never did James smiles at me and stamps his feet rubbing his hands together and blowing on them,Why does the narrator feel embarrassed to see James Franklin?,A. Because he got her phone number but never called,B. Because he is dating Penelope,C. Because he reminds her of a bad experience,D. Because he is unfriendly,A. Because he got her phone number but never called,no,14.14496875,,,,,0,46,46,46,2645.5205571669994,,,,,,,,,,,,2646.1777400419996,2646.192825499667,2646.198462292,2660.34703525,2660.3480573750003,2660.359125375,2660.3691103749998,2660.3691103749998,2683.1296688329994,"James asks narrator whether she is cold (she likes cold, remember?)  Narrator is not excited to see him.",1,[22.76837916600016],[22.768381666000096],,,,,,,,2645.5115741669997,2645.5205571669994,2645.5205571669994,2645.5205571669994,2646.177432708,1,[0.6632975000002261],[0.6633000410001841],,,,,p_1,001,2024-03-26_13h11.55.322,speech_rate,2023.2.3,None,2024-03-26 13h12.06.136700 -0700,
,Someday_25_condition-2x.wav,Someday__Someday__Maybe__Unabridged___File_015_of_116_1.wav,Yeah and could you maybe put your hair in a ponytail Yeah I'm even less sure of what I did the second time but the stick straights laugh again anyway I think a hair is funnier down don't you One of them says to the other who nods vigorously back As I leave the room I stuff the paper with the copy on it in my bag even though you're not supposed to take it with you and bolt for the elevator I walk a few blocks and I'm not sure what direction I'm so excited that they seem to like me that I'm dizzy and disoriented,What do the casting directors suggest regarding the narrator's hair?,A. They ask her to wear it down,B. They ask her to put it in a ponytail,C. They don't mention her hair,D. They suggest she wears a wig,B. They ask her to put it in a ponytail,no,14.395,,,,,0,47,47,47,2683.137675375,,,,,,,,,,,,2683.7136612919994,2683.7454183753334,2683.7363357920003,2698.129251792,2698.1435989579995,2698.1537954999994,2698.1639713329996,2698.1639713329996,2725.131739083,"Narrator discusses how to make her hair for a comedy role. She rushes out for a walk, so excited she has no idea where to g.",1,[26.97564345899991],[26.97564595899985],,,,,,,,2683.1301503329996,2683.137675375,2683.137675375,2683.137675375,2683.71340325,1,[0.5819715000006909],[0.5819739580001624],,,,,p_1,001,2024-03-26_13h11.55.322,speech_rate,2023.2.3,None,2024-03-26 13h12.06.136700 -0700,
,Someday_93_condition-2x.wav,Someday__Someday__Maybe__Unabridged___File_041_of_116_0.wav,It doesn't even matter whether it's a real person or an actor playing a character and if the person or character is interesting in some way I put myself in his or her shoes imagining what it would feel like what I would say or do if I were that person I don't remember deciding to do this as a career I want to tell him There wasn't any one day where it came to me My mother died and I started pretending it didn't happen to me started imagining what it would be like to have someone else's life story and pretending became a relief,What coping mechanism did the narrator develop after their mother's death?,A. The narrator chose to openly discuss her career decisions,B. The narrator decided to become an actor one specific day,C. The narrator began to use imagination and pretending as a form of escape,D. The narrator focused on the realism of the characters portrayed by actors,C. The narrator began to use imagination and pretending as a form of escape,no,14.345,,,,,0,48,48,48,2725.156523042,,,,,,,,,,,,2726.1639020000002,2726.195194875334,2726.1858394169994,2740.5413944169995,2740.548356708,2740.5594568750003,2740.570504958,2740.570504958,2756.1674197499997,Narrator describes to someone about how she got in to acting by pretending to be in someone else's shoes.,1,[15.605532333000156],[15.605534958000135],,,,,,,,2725.1320747499994,2725.156523042,2725.156523042,2725.156523042,2726.163636667,1,[1.028922667000188],[1.0289252500006114],,,,,p_1,001,2024-03-26_13h11.55.322,speech_rate,2023.2.3,None,2024-03-26 13h12.06.136700 -0700,
,Someday_60_condition.wav,Someday__Someday__Maybe__Unabridged___File_029_of_116_0.wav,Yes I guess you did some kind of television commercial and he saw you in something on Theatre Row I think it was just after he moved in Is that off Broadway or sorry is that Broadway You played two parts a psychiatrist and something else a French housekeeper A cockney maid It was just a two night thing not really even off Broadway very off Broadway I guess Yes that's it,What two parts did the narrator play in a theater production?,A. A psychiatrist and a French housekeeper,B. A lawyer and a judge,C. A doctor and a nurse,D. A singer and a dancer,A. A psychiatrist and a French housekeeper,no,28.84,,,,,0,49,49,49,2756.176843,,,,,,,,,,,,3032.047429917,3032.079070083334,3032.074082833,3060.909733167,3060.9323959169997,3060.953889042,3060.964623125,3060.964623125,3088.703121333,"narrator discusses which role she played in an off, off, off broadway show with someone else.",1,[27.746940500000164],[27.7469430000001],,,,,,,,2756.167830708,2756.176843,2756.176843,2756.176843,3032.047233167,1,[275.8767034170005],[275.8767068340003],,,,,p_1,001,2024-03-26_13h11.55.322,speech_rate,2023.2.3,None,2024-03-26 13h12.06.136700 -0700,
,Someday_51_condition-3x.wav,Someday__Someday__Maybe__Unabridged___File_025_of_116_4.wav,And he says Dina pauses as if the next part of the story is particularly hard to tell And he says only two things will happen with this One it's a giant hit and you're thanking me every year at the Emmys Or two they'll make the pilot it won't work it'll never air There's no scenario in between If for some reason they put this on the air and it isn't 100 fantastic he said it'll never last Dina and Leighton say together Then Dina slaps her palm to her forehead as if she still can't believe it,What does Dina do after telling the story?,A. She shakes her head,B. She slaps her palm to her forehead,C. She cries,D. She sits in silence,B. She slaps her palm to her forehead,yes,11.23875,,,,,0,50,50,50,3088.711049208,,,,,,,,,,,,3090.336795833,3090.351834874667,3090.3544199999997,3101.595782792,3101.600376583,3101.6104979579995,3101.620869792,3101.620869792,3130.1888237499998,agent man says that this show will either win grammys or it won't make it past the pilot. Someone else clasps their hands in confusion.,1,[28.575992957999915],[28.575995375000275],,,,,,,,3088.70358475,3088.711049208,3088.711049208,3088.711049208,3090.33651275,1,[1.6316176660002384],[1.631620125000154],,,,,p_1,001,2024-03-26_13h11.55.322,speech_rate,2023.2.3,None,2024-03-26 13h12.06.136700 -0700,
,Someday_74_condition-3-5x.wav,Someday__Someday__Maybe__Unabridged___File_035_of_116_2.wav,Barney wears a light blue sport coat and has thick white hair cropped very close to his head The whole place smells like cigar smoke and dust but there's something comforting about it I'm afraid my nervousness is obvious especially when I discover that the only way to sit in the one huge armchair opposite his desk is to sink into it and be swallowed I fight the chair for a minute trying to perch daintily on the edge and then give up and sit back which at least might make me look relaxed Francis Banks Barney Bellows,What is Barney Sparks wearing when the main character meets him?,A. A black tuxedo,B. A light blue sport coat,C. A red sweater,D. A white lab coat,B. A light blue sport coat,no,9.29375,,,,,0,51,51,51,3130.1986999579995,,,,,,,,,,,,3130.6720469579996,3130.687130499667,3130.6881439999997,3139.981213667,3139.9824564170003,3139.9930436249997,3140.003314292,3140.003314292,3158.840457583,narrator tries to look relaxed while sitting in a chair in a comfrotable room with a white-haired man.,1,[18.845057334000558],[18.8450601250006],,,,,,,,3130.189311917,3130.1986999579995,3130.1986999579995,3130.1986999579995,3130.6718109579997,1,[0.4794870420000734],[0.47948949999954493],,,,,p_1,001,2024-03-26_13h11.55.322,speech_rate,2023.2.3,None,2024-03-26 13h12.06.136700 -0700,
,Someday_31_condition-3x.wav,Someday__Someday__Maybe__Unabridged___File_017_of_116_3.wav,Yeah and then I have stuff you know with all of my agents too I say hands flapping vaguely in the air Very cool Who are you with I realize I'm too exhausted to continue I'm with it's all in my head ink You're what Oh I get it You're kidding Ha Yes I'm kidding I'm currently between agents currently and formerly between them,What is the narrator's current agent situation?,A. She has one agent,B. She has no agents,C. She has more than two agents,D. She has two agents,B. She has no agents,no,10.1325,,,,,0,52,52,52,3158.8498947079997,,,,,,,,,,,,3160.324053167,3160.3390640836665,3160.3413527499997,3170.482724458,3170.487282,3170.4974497499998,3170.5076462919997,3170.5076462919997,3188.6086450000003,narrator tries to look cool by talking about how hse's with an agent (but is actually between agents) to another perosn.,1,[18.10885508299998],[18.1088579999996],,,,,,,,3158.8409162079997,3158.8498947079997,3158.8498947079997,3158.8498947079997,3160.323793292,1,[1.480166666000514],[1.480169250000472],,,,,p_1,001,2024-03-26_13h11.55.322,speech_rate,2023.2.3,None,2024-03-26 13h12.06.136700 -0700,
,Someday_119_condition.wav,Someday__Someday__Maybe__Unabridged___File_053_of_116_1.wav,But when did you start doing this I didn't see any of it in the fridge Yeah no that's the best part You don't have to refrigerate it It comes in a box It's freeze dried in a package and you just take it out and soak it You soak it It sounds weird I know but it's actually very convenient because you can take it anywhere you know on the go Why can't you just eat actual healthy food the kind that doesn't require soaking Well obviously because I can't be trusted to control myself This teaches you portion control,Why does the narrator prefer soaked food?,A. Because it helps with portion control,B. Because it tastes good,C. Becauseit is cheap,D. Because the friend likes it,A. Because it helps with portion control,yes,28.63996875,,,,,0,53,53,53,3188.6164565829995,,,,,,,,,,,,3189.225274833,3189.2570197083332,3189.25796575,3217.902023042,3217.9058546670003,3217.916954542,3217.9274553329997,3217.9274553329997,3238.1279383749998,narrator is trying freeze-dried healthy food to do portion control . SHe is met with skepticism from another.,1,[20.20859229100006],[20.208594790999996],,,,,,,,3188.609110458,3188.6164565829995,3188.6164565829995,3188.6164565829995,3189.2250442079994,1,[0.614636917000098],[0.6146394170000349],,,,,p_1,001,2024-03-26_13h11.55.322,speech_rate,2023.2.3,None,2024-03-26 13h12.06.136700 -0700,
,Someday_84_condition-2-5x.wav,Someday__Someday__Maybe__Unabridged___File_038_of_116_0.wav,The offices of absolute artists are on the 32nd floor of a sleek glass high rise building on 56th Street near Fifth Avenue in the middle of countless stores and apartments I could never afford I come to this part of town only once in a while to go to Central Park although I like our park in Brooklyn just as much The streets are wider here and the buildings are much taller than downtown and lots of people are wearing suits and carrying briefcases and crossing the street dangerously in the middle of the block,Where is Absolute Artists' office located?,A. In Brooklyn,B. On Fifth Avenue,C. By Central Park,D. On the 32nd floor of a high rise,D. On the 32nd floor of a high rise,yes,12.80125,,,,,0,54,54,54,3238.137670458,,,,,,,,,,,,3238.6770978329996,3238.6916693336666,3238.696699708,3251.491684167,3251.4987159169996,3251.509093083,3251.519772875,3251.519772875,3281.9975393329996,narrator describes how she only comes to manhattan for central park to see people with breifcases. Some office she is eyeing is on 5th ave near apts she could not afford.,1,[30.485752084000524],[30.48575508400063],,,,,,,,3238.1283188749994,3238.137670458,3238.137670458,3238.137670458,3238.6768582079994,1,[0.5457057080002414],[0.5457086659998822],,,,,p_1,001,2024-03-26_13h11.55.322,speech_rate,2023.2.3,None,2024-03-26 13h12.06.136700 -0700,
,Someday_30_condition.wav,Someday__Someday__Maybe__Unabridged___File_017_of_116_2.wav,No he says then he pushes his bottom lip out a little Not tonight sweetheart He looks almost sorry for me as if he's canceling some sort of pre arranged date or I'm five years old and he just told me we can't go to the zoo I resent his assumption that I'm even slightly disappointed that he won't be in class tonight although the truth is I'm inexplicably crushed Me neither Yeah I'm not going to class either because it's funny but I have to pick up some scripts too actually,Why won't the narrator be at the class?,A. She has to pick up some scripts,B. She thinks the class is funny,C. She does't want to go to the zoo,D. She has to go to a party,A. She has to pick up some scripts,no,28.75996875,,,,,0,55,55,55,3282.006858875,,,,,,,,,,,,3282.597916375,3282.6295552503334,3282.631345,3311.391110458,3311.3964850419998,3311.417276792,3311.4277337080002,3311.4277337080002,3351.584726125,narrator is crushed despite her classmate's condescending manner of telling her he won't be at class tonight . She counters by lying that she also won't be in class bc she needs to pici up scripts.,1,[40.16502466699967],[40.16502733299967],,,,,,,,3281.9980071669997,3282.006858875,3282.006858875,3282.006858875,3282.5976359999995,1,[0.5969012089999524],[0.5969037089998892],,,,,p_1,001,2024-03-26_13h11.55.322,speech_rate,2023.2.3,None,2024-03-26 13h12.06.136700 -0700,
,Someday_85_condition-3-5x.wav,Someday__Someday__Maybe__Unabridged___File_038_of_116_1.wav,He hands me a paper badge with my name printed on it and says Yes it's okay for me to go up The elevator empties out around the 20th floor so I quickly try to use the smoked mirror walls to check my face and hair and outfit I'm wearing my black stretchy turtleneck with my black wool mini skirt black tights and Doc Martens lace up boots And now I can see in the reflection in the elevator mirror that the skirt is too short I try to pull it down but then my sweater isn't long enough and if I pull the skirt down to where it looks better an inch of my stomach shows,What does the narrator realize about her outfit when she checks her reflection?,A. Her turtleneck is too tight,B. Her boots don't match,C. Her skirt is too short,D. Her hair is a mess,C. Her skirt is too short,no,9.39375,,,,,0,56,56,56,3351.592408417,,,,,,,,,,,,3352.568710583,3352.5836335416666,3352.5850513329997,3361.976638375,3361.981912917,3361.993002208,3362.0035929999995,3362.0035929999995,3384.4204535,"narrator gets the OK togo down the elevator. She tries to adjust her outfit in the reflection, but it is simply too showy.",1,[22.42496462500003],[22.424967832999755],,,,,,,,3351.5851587079997,3351.592408417,3351.592408417,3351.592408417,3352.568417208,1,[0.9818500420005876],[0.9818526670005667],,,,,p_1,001,2024-03-26_13h11.55.322,speech_rate,2023.2.3,None,2024-03-26 13h12.06.136700 -0700,
,Someday_27_condition.wav,Someday__Someday__Maybe__Unabridged___File_016_of_116_0.wav,And maybe we'll go out sometime and maybe we'll fall in love and someday we'll happen to be walking down this very street and he'll say remember that day when we accidentally ran into each other here But none of that can happen if he walks by me on the street today I make my way across 45th Street and hover near a trash can digging in my bag as if I'm looking for something I need to throw out waiting for his light to change Finally I can see him start to walk across the street I look away so he doesn't see me staring at him and when I glance up again I've lost him in the crowd,What is the narrator's hope regarding the person she encounters on the street?,A. To avoid meeting them,B. To have a chance encounter,C. To never see them again,D. To get their phone number,B. To have a chance encounter,no,29.51,,,,,0,57,57,57,3384.4299154579994,,,,,,,,,,,,3384.886010417,3384.917571625334,3384.9189119579996,3414.4178989169995,3414.433747583,3414.454967875,3414.4655095420003,3414.4655095420003,3441.0402004999996,"narrator fakes looking through something in her bag so that a guy she likes can bump in to her. But he doesn't, and she's lost him in the crowd.",1,[26.582725165999364],[26.582727582999723],,,,,,,,3384.4208805,3384.4299154579994,3384.4299154579994,3384.4299154579994,3384.885727875,1,[0.46203274999970745],[0.4620352920001096],,,,,p_1,001,2024-03-26_13h11.55.322,speech_rate,2023.2.3,None,2024-03-26 13h12.06.136700 -0700,
,Someday_22_condition-2-5x.wav,Someday__Someday__Maybe__Unabridged___File_013_of_116_1.wav,Want to go with me to that diner on 8th and get a salad in between Salad Oh yeah I'm supposed to eat more salad It just never seems appealing In fact I was already planning to go to that diner on 8th for my usual pre class dinner Grilled cheese french fries and the New York Times crossword puzzle But for some reason I find myself making an excuse I can't I have another you know torture session after this one,What was the narrator already planning to eat at the diner?,A. Grilled cheese and fries,B. Salad,C. Pie,D. Club sandwich,A. Grilled cheese and fries,no,12.32,,,,,0,58,58,58,3441.0495153330003,,,,,,,,,,,,3441.857224917,3441.872156499667,3441.8765167499996,3454.18515425,3454.203023958,3454.213358833,3454.2236234579996,3454.2236234579996,3475.5577718329996,"narrator is invited to get salad at her preferred diner, but doesn't want to go and makes up a reason that she cannot attend.",1,[21.341943583000102],[21.34194608300004],,,,,,,,3441.0406872920003,3441.0495153330003,3441.0495153330003,3441.0495153330003,3441.856953542,1,[0.8134608330001356],[0.8134634170000936],,,,,p_1,001,2024-03-26_13h11.55.322,speech_rate,2023.2.3,None,2024-03-26 13h12.06.136700 -0700,
,Someday_122_condition-3-5x.wav,Someday__Someday__Maybe__Unabridged___File_054_of_116_2.wav,When I first started watching it was just for a few minutes right after Lisa and before the first commercial break I was more fascinated than interested I would use the show as a kind of acting exercise challenging myself with the hokey dialogue saying the lines out loud to myself just to see if I could make the scenes feel more real than the actors on the show did I wondered if it was the actor's fault that the whole thing seemed so ridiculous or if there's truly nothing you can do to make it less phony given how phony it looks,How does the narrator approch the show?,A. As a truly fascinating show,B. As an acting practice,C. She never watches it,D. As a way to pass some quality time,B. As an acting practice,yes,9.234375,,,,,0,59,59,59,3475.565791125,,,,,,,,,,,,3476.259087708,3476.274010874667,3476.2753820420003,3485.517386875,3485.522103333,3485.532454917,3485.543023542,3485.543023542,3513.5941442499998,narrator thinks about ap previous show and to prepare to make her acting in the current show more funny.,1,[28.05916524999975],[28.05916779099971],,,,,,,,3475.558248292,3475.565791125,3475.565791125,3475.565791125,3476.2587923749998,1,[0.6991187500007072],[0.6991213340006652],,,,,p_1,001,2024-03-26_13h11.55.322,speech_rate,2023.2.3,None,2024-03-26 13h12.06.136700 -0700,
,Someday_76_condition-2x.wav,Someday__Someday__Maybe__Unabridged___File_035_of_116_4.wav,You're kidding No dear I'm a sucker for a klutz It's where you see what someone is made of My father the great Broadway director Irving Sparks always said anyone can smile on their best day I like to meet a man who can smile on his worst I was his assistant as a younger man just 19 years old sitting in the very last row in the audience of Best Foot Forward when a redheaded chorus girl took a terrible spill,Why was Barney Sparks' father's occupation?,A. He was a doctor,B. He was an actor,C. He was a Broadway director,D. He was an accountant,C. He was a Broadway director,yes,13.105,,,,,0,60,60,60,3513.604160875,,,,,,,,,,,,3514.6944489999996,3514.7093299996664,3514.7145292919995,3527.819907708,3527.8216313329995,3527.8327517919997,3527.8428864999996,3527.8428864999996,3560.0964917499996,man reflects how he liked meeting another man. He likes to meet a man who can "smile on his worst day". he then mentions something about a coarse red haired girl,1,[32.26133816700076],[32.26134062500023],,,,,,,,3513.594573958,3513.604160875,3513.604160875,3513.604160875,3514.694188875,1,[1.0962584579992836],[1.096261207999305],,,,,p_1,001,2024-03-26_13h11.55.322,speech_rate,2023.2.3,None,2024-03-26 13h12.06.136700 -0700,
,Someday_149_condition-4x.wav,Someday__Someday__Maybe__Unabridged___File_098_of_116_1.wav,"The minute James got back into town, any doubts I might have had about us evaporated. He was tanned from the sun, proof of his days spent shooting in the desert and the sight of him made me melt. I'm confused by his message though. We discussed going to the premiere of his movie together. You're sending a car, I say, when he picks up. Like a rental car? No, like a car with a driver to pick you up. Like a limousine? Well, no, that'll probably just be a town car, a sedan. Is that okay?",How will the narrator go to the premiere?,A. By calling a cab,B. By renting a car,C. She will be picked up by a driver,D. She will be picked up by Dan,C. She will be picked up by a driver,yes,7.84875,,,,,0,61,61,61,3560.1063775000002,,,,,,,,,,,,3561.3969479999996,3561.411806999667,3561.4129583329996,3569.2533946249996,3569.261987375,3569.2722419169995,3569.2822465829995,3569.2822465829995,3582.3649193749998,"man talks about how they'll send a car for the narrator, but it won't be a limosuine.",1,[13.090101792000496],[13.090104333999989],,,,,,,,3560.0969487499997,3560.1063775000002,3560.1063775000002,3560.1063775000002,3561.3966892500002,1,[1.2963931249996676],[1.296396249999816],,,,,p_1,001,2024-03-26_13h11.55.322,speech_rate,2023.2.3,None,2024-03-26 13h12.06.136700 -0700,
,Someday_62_condition-2-5x.wav,Someday__Someday__Maybe__Unabridged___File_030_of_116_1.wav,Maybe he'd think I'd played the part dozens of times That would teach the anonymous voice to respect me At the Old Horse Theater in Princeton New Jersey he said Did I detect a hint of sarcasm in his voice OK thanks There was a silence on the other end Any other details Well it's none of my business but I'd never heard of it So I looked it up and that theater doesn't seem to exist,Why did the he look up the Old Horse Theater?,A. To have some information about it,B. To apply for a role there,C. To learn about its upcoming shows,"D. To plan a trip to Princeton, New Jersey",A. To have some information about it,no,12.578125,,,,,0,62,62,62,3582.3725668750003,,,,,,,,,,,,3583.0629764999994,3583.0773533336665,3583.0821393329998,3595.6565541669997,3595.6590148329997,3595.6700565,3595.680172792,3595.680172792,3620.6652744579997,"man thinks the theatre narrator said she performed at in Princeton, NJ, doesn't exist. They are on the phone. ",1,[24.992657957999654],[24.992661000000226],,,,,,,,3582.365351083,3582.3725668750003,3582.3725668750003,3582.3725668750003,3583.0627299999996,1,[0.6958232500001031],[0.6958256249999977],,,,,p_1,001,2024-03-26_13h11.55.322,speech_rate,2023.2.3,None,2024-03-26 13h12.06.136700 -0700,
,Someday_82_condition-2-5x.wav,Someday__Someday__Maybe__Unabridged___File_037_of_116_3.wav,The end Huh I say baffled The end is supposed to show that he's come to terms with who he is It's supposed to show he's been healed Huh I say again I know Fellini can be abstract Dan says eyes gleaming Watch it with me from the beginning sometime I will I smile back at him noticing for the first time the flecks of green in his brown eyes The room seems too dark and quiet suddenly,What color are Dan's eyes,A. Blue with green flecks,B. Deep brown,C. Brown with green flecks,D. Dark green with brown flecks,C. Brown with green flecks,yes,13.654375,,,,,0,63,63,63,3620.67525675,,,,,,,,,,,,3621.9339583749997,3621.948870499667,3621.954149292,3635.6004166249995,3635.6121648749995,3635.6223132079995,3635.6330266249997,3635.6330266249997,3662.219624458,narrator converses with a man and notices the green in his eyes for the first time. Room seems dark suddenly to narrator. it's romantic.,1,[26.594707999999628],[26.594710540999586],,,,,,,,3620.665686083,3620.67525675,3620.67525675,3620.67525675,3621.933699333,1,[1.2647255419997236],[1.2647279579996393],,,,,p_1,001,2024-03-26_13h11.55.322,speech_rate,2023.2.3,None,2024-03-26 13h12.06.136700 -0700,
,Someday_120_condition-4x.wav,Someday__Someday__Maybe__Unabridged___File_053_of_116_2.wav,Everything you need is in each packet so it takes the guesswork out of dieting You sound like you've joined a cult What happens when you have to go back to the real world the world where you have to think for yourself Hopefully I'll be so weak and frail that food will have lost its appeal entirely Great plan And who's on Lisa today I'm pretty sure today's show is Women Who Wish Their Best Friends Would Stop Judging Them Har har I'm going to work now Do you want me to take the TV cord with me,"What topic is discussed on Lisa's show, in the narrator's joke?",A. Weight loss programs,B. The challenges of dieting,C. Women's relationships with their best friends,D. The appeal of joining a cult,C. Women's relationships with their best friends,no,6.9425,,,,,0,64,64,64,3662.229215958,,,,,,,,,,,,3663.0367254169996,3663.051539708667,3663.051270375,3669.982141792,3669.996218333,3670.007321833,3670.017399458,3670.017399458,3691.0708417919996,"Har Har, her friend says , and asks if narrator wants to take more (shots?). ",1,[21.061054124999828],[21.06105670799934],,,,,,,,3662.2200683749998,3662.229215958,3662.229215958,3662.229215958,3663.036453083,1,[0.813486500000181],[0.8134890419996736],,,,,p_1,001,2024-03-26_13h11.55.322,speech_rate,2023.2.3,None,2024-03-26 13h12.06.136700 -0700,
,Someday_26_condition-2x.wav,Someday__Someday__Maybe__Unabridged___File_015_of_116_2.wav,My stomach lurches The action between each line is the exact opposite of what the line is After kids are my number one priority it says rushing mom gets daughter to school just as the bell is ringing After the thing about always having time for friends looks at answering machine guiltily and decides to screen the call At the end the harried housewife stuffs an impossible amount of dirty clothes in the washer which miraculously come out clean and she gets a huge hug from her approving husband,What is the narrator's reaction to the script she's reading?,A. Her stomach lurches,B. She finds it amusing,C. She feels inspired,D. She is moved to tears,A. Her stomach lurches,no,13.94496875,,,,,0,65,65,65,3691.079045167,,,,,,,,,,,,3692.186422875,3692.200793499667,3692.206957458,3706.1445841249997,3706.159080583,3706.17017125,3706.1802359169997,3706.1802359169997,3736.0069925,narrator is surprised at a script which has the character do incongruent actions with what she says about herself.,1,[29.83422870800041],[29.834231000000727],,,,,,,,3691.0713077499995,3691.079045167,3691.079045167,3691.079045167,3692.186178125,1,[1.1132969589998538],[1.1132996249998541],,,,,p_1,001,2024-03-26_13h11.55.322,speech_rate,2023.2.3,None,2024-03-26 13h12.06.136700 -0700,
,Someday_107_condition-3x.wav,Someday__Someday__Maybe__Unabridged___File_048_of_116_0.wav,One more thing from last night Yeah Apparently We're not supposed to wash our jeans anymore the wardrobe lady told me We are only supposed to dry clean them What That's insane Yep We're supposed to buy jeans really tight as tight as we can squeeze into so all the fat gets compressed into as little space as possible Then we want the fat compression level to stay that way for as long as it can right Well washing jeans makes them softer and baggier and lessens the fat compression quotient,Why are people advised not to wash their jeans anymore?,A. To save water and be more environmentally friendly,B. To maintain the tight fit and fat compression,C. To reduce laundry expenses,D. To prevent jeans from fading,B. To maintain the tight fit and fat compression,yes,10.875,,,,,0,66,66,66,3736.016373208,,,,,,,,,,,,3803.6281437079997,3803.6429622086666,3803.6458961669996,3814.5417602079997,3814.5205749999996,3814.531669125,3814.5417602079997,3814.5417602079997,3842.5299305829994,"someone telsl teh narrator that they're not suppoed to wash jeans anymore, they'res supposed to get them dry cleaned, so they can compress fat in the legs more. t;his is awful",1,[27.995712332999574],[27.995715207999638],,,,,,,,3736.007467083,3736.016373208,3736.016373208,3736.016373208,3803.6278374169997,1,[67.61749724999936],[67.6174997499993],,,,,p_1,001,2024-03-26_13h11.55.322,speech_rate,2023.2.3,None,2024-03-26 13h12.06.136700 -0700,
,Someday_116_condition-2-5x.wav,Someday__Someday__Maybe__Unabridged___File_052_of_116_0.wav,Yes I noticed that this may come as a shock to you But many studies have shown there's at least a slight nutritional difference between spinach that's rotting in the crisper drawer and spinach That's ingested into the body Details I scoff I give up she says heading for the kitchen more coffee I Stare down at my bagel which seems to I me warily back Maybe Jane's right Maybe I need more education I wonder what Penelope schlotzky eats on Sunday Probably not bagels,What does the narrator stare down at?,A. A bagel,B. Some spinach,C. A cup of coffee,D. A cup of tea,A. A bagel,no,12.525625,,,,,0,67,67,67,3842.5393944999996,,,,,,,,,,,,3845.696777458,3845.711553333667,3845.7157282919998,3858.238358208,3858.2418983749994,3858.2525946670003,3858.262834792,3858.262834792,3888.8489483329995,Jane says spinahc doesn't give th same nutrients in the body as it does on teh plate (weird). narrator stares sadly at her bagel and wonders if she should get more education.,1,[30.593288791000305],[30.59329145799984],,,,,,,,3842.530354417,3842.5393944999996,3842.5393944999996,3842.5393944999996,3845.696513,1,[3.1627382919996307],[3.162740834000033],,,,,p_1,001,2024-03-26_13h11.55.322,speech_rate,2023.2.3,None,2024-03-26 13h12.06.136700 -0700,
