index,wav_file,old_name,segment_text,question,C1,C2,C3,C4,C_correct,summary,duration,training.thisRepN,training.thisTrialN,training.thisN,training.thisIndex,sum_true.thisRepN,sum_true.thisTrialN,sum_true.thisN,sum_true.thisIndex,dummy_loop.thisRepN,dummy_loop.thisTrialN,dummy_loop.thisN,dummy_loop.thisIndex,experiment.thisRepN,experiment.thisTrialN,experiment.thisN,experiment.thisIndex,sum_true_exp.thisRepN,sum_true_exp.thisTrialN,sum_true_exp.thisN,sum_true_exp.thisIndex,dummy_loop_exp.thisRepN,dummy_loop_exp.thisTrialN,dummy_loop_exp.thisN,dummy_loop_exp.thisIndex,thisRow.t,notes,Experimenter.started,reminder.started,Experimenter.stopped,Instructions.started,Instructions.stopped,Start_Segment_Train.started,Play_train.started,Trial_counter_train.started,text_5.started,Start_Segment_Train.stopped,Play_train.numClicks,Play_train.timesOn,Play_train.timesOff,Training_Segment.started,Experimen_audio.started,polygon.started,polygon.stopped,Training_Segment.stopped,Rating.started,slider.started,text_3.started,button_2.started,Rating.stopped,slider.response,slider.rt,button_2.numClicks,button_2.timesOn,button_2.timesOff,Start_Summary.started,text_2.started,Start_Summary.stopped,summary_button.numClicks,summary_button.timesOn,summary_button.timesOff,Summary.started,textbox.started,summary_done.started,Summary.stopped,textbox.text,summary_done.numClicks,summary_done.timesOn,summary_done.timesOff,Multiple_Choice_2.started,Multiple_Choice_2.stopped,A.numClicks,A.timesOn,A.timesOff,B.numClicks,B.timesOn,B.timesOff,C.numClicks,C.timesOn,C.timesOff,D.numClicks,D.timesOn,D.timesOff,Start_Exp.started,Start_exp.started,Start.started,Start_Exp.stopped,Start.numClicks,Start.timesOn,Start.timesOff,Start_Segment.started,Play.started,Trial_counter.started,text_6.started,Start_Segment.stopped,Play.numClicks,Play.timesOn,Play.timesOff,Start_Sum_Exp.started,text_4.started,Start_Sum_Exp.stopped,sum_button.numClicks,sum_button.timesOn,sum_button.timesOff,textbox.stopped,summary_done.stopped,Thanks.started,text_7.started,text_7.stopped,Thanks.stopped,participant,session,date,expName,psychopyVersion,frameRate,expStart,
1,Someday_trial_condition.wav,Someday__Someday__Maybe__Unabridged___File_069_of_116_3.wav,It's a gut feeling You can't nickname him He's a real person not a joke person You don't have to tell me Only a real person would try to shake hands with my best friend's foot Jane you're not explaining it right It was very romantic And thankfully our steaming bowl of bright yellow melted cheese with flecks of green chilies arrives Listen she says dipping a chip into the creamy depths You're the one with the brand new personality I'm still the same old Jane,"What does the narrator have, according to Jane?",A) A new recipe for dipping sauce,B) A new personality,C) A new restaurant suggestion,D) A new pair of shoes,B) A new personality,yes,30,0,0,0,0,0,0,0,0,0,0,0,0,,,,,,,,,,,,,70.44641716700062,,0.010254000000713859,0.02349333399979514,2.033156458999656,2.0331652500008204,27.93705379200037,27.946091292000347,27.96309795900015,27.96309795900015,27.96309795900015,31.967824208999446,1,[4.01217700000052],[4.012179959001514],31.96829983399948,32.017002958999726,32.009307624999565,62.03324066700043,62.003117709000435,62.02535499999976,62.235994709000806,62.235994709000806,66.36260149999907,67.43623520899928,10,4.309405666999737,1,[1.0829221250005503],[1.0829245420009102],67.43697191700085,67.44287795899982,70.40682308400028,1,[2.9686203340006614],[2.9686326249993726],70.40843437500007,70.44641716700062,70.44641716700062,98.12190437500067,Jane and her friend discuss her personality over a bowl of chips in what is presumably a restuarant. ,1,[27.686830374999772],[27.68683349999992],,,,,,,,,,,,,,,,,,,,,,,,,,,,,,,,,,,,,,,,,,p_4,001,2024-05-04_13h50.52.415,speech_rate,2023.2.3,None,2024-05-04 13h51.04.887127 -0700,
1,Someday_trial_condition.wav,Someday__Someday__Maybe__Unabridged___File_069_of_116_3.wav,It's a gut feeling You can't nickname him He's a real person not a joke person You don't have to tell me Only a real person would try to shake hands with my best friend's foot Jane you're not explaining it right It was very romantic And thankfully our steaming bowl of bright yellow melted cheese with flecks of green chilies arrives Listen she says dipping a chip into the creamy depths You're the one with the brand new personality I'm still the same old Jane,"What does the narrator have, according to Jane?",A) A new recipe for dipping sauce,B) A new personality,C) A new restaurant suggestion,D) A new pair of shoes,B) A new personality,yes,30,0,0,0,0,0,0,0,0,,,,,,,,,,,,,,,,,,,,,,,,,,,,,,,,,,,,,,,,,,,,,,,,,,,,,,,,,,,,,,,,,,,,,,,,,,,,,,,,,,,,,,,,,,,,,,,,,,,,,,p_4,001,2024-05-04_13h50.52.415,speech_rate,2023.2.3,None,2024-05-04 13h51.04.887127 -0700,
1,Someday_trial_condition.wav,Someday__Someday__Maybe__Unabridged___File_069_of_116_3.wav,It's a gut feeling You can't nickname him He's a real person not a joke person You don't have to tell me Only a real person would try to shake hands with my best friend's foot Jane you're not explaining it right It was very romantic And thankfully our steaming bowl of bright yellow melted cheese with flecks of green chilies arrives Listen she says dipping a chip into the creamy depths You're the one with the brand new personality I'm still the same old Jane,"What does the narrator have, according to Jane?",A) A new recipe for dipping sauce,B) A new personality,C) A new restaurant suggestion,D) A new pair of shoes,B) A new personality,yes,30,0,0,0,0,,,,,,,,,,,,,,,,,,,,,,,,,,,,,,,,,,,,,,,,,,,,,,,,,,,,,,,,,,,,,,,,,98.12244116699912,105.09861174999969,0,,,1,6.95423354200102,6.954236667001169,0,,,0,,,,,,,,,,,,,,,,,,,,,,,,,,,,,,p_4,001,2024-05-04_13h50.52.415,speech_rate,2023.2.3,None,2024-05-04 13h51.04.887127 -0700,
2,Someday_trial_condition-5x.wav,Someday__Someday__Maybe__Unabridged___File_103_of_116_1.wav,Isn't halfway where two people usually meet Well in general maybe But tonight this is sort of a big deal for me It's my night I'm not sure you you don't think I get it Well no I mean how could you I'm having trouble making sense of this conversation James is speaking with authority but there's something wrong Something feels so wrong somehow I don't care about waving and smiling and having my picture taken with him,"How does James speak, according to the narrator?",A) With compassion,B) With grief,C) With hesitation,D) With authority,D) With authority,yes,6.2,0,1,1,1,0,0,0,0,0,0,0,0,,,,,,,,,,,,,121.73540441700061,,,,,,,105.09946929199941,105.10947937499986,105.10947937499986,105.10947937499986,109.78714579199914,1,[4.683677207998699],[4.6836799579996296],109.78734708400043,109.8029218756658,109.79981854200014,116.00836679200074,115.98950349999905,116.00070066700027,116.2589414590002,116.2589414590002,119.11000512499959,120.12274733400045,1,3.0843956250009796,1,[1.0219565829993371],[1.021958999999697],120.12330070899952,120.12813629199991,121.72277970899995,1,[1.5990915829988808],[1.5990943329998117],121.72342554200077,121.73540441700061,121.73540441700061,150.09183691699945,"Audio was extremely sped up but from what little I could tell seemed to continue previous subject
",1,[28.364417792001404],[28.36442058400098],,,,,,,,,,,,,,,,,,,,,,,,,,,,,,,,,,,,,,,,,,p_4,001,2024-05-04_13h50.52.415,speech_rate,2023.2.3,None,2024-05-04 13h51.04.887127 -0700,
2,Someday_trial_condition-5x.wav,Someday__Someday__Maybe__Unabridged___File_103_of_116_1.wav,Isn't halfway where two people usually meet Well in general maybe But tonight this is sort of a big deal for me It's my night I'm not sure you you don't think I get it Well no I mean how could you I'm having trouble making sense of this conversation James is speaking with authority but there's something wrong Something feels so wrong somehow I don't care about waving and smiling and having my picture taken with him,"How does James speak, according to the narrator?",A) With compassion,B) With grief,C) With hesitation,D) With authority,D) With authority,yes,6.2,0,1,1,1,0,0,0,0,,,,,,,,,,,,,,,,,,,,,,,,,,,,,,,,,,,,,,,,,,,,,,,,,,,,,,,,,,,,,,,,,,,,,,,,,,,,,,,,,,,,,,,,,,,,,,,,,,,,,,p_4,001,2024-05-04_13h50.52.415,speech_rate,2023.2.3,None,2024-05-04 13h51.04.887127 -0700,
2,Someday_trial_condition-5x.wav,Someday__Someday__Maybe__Unabridged___File_103_of_116_1.wav,Isn't halfway where two people usually meet Well in general maybe But tonight this is sort of a big deal for me It's my night I'm not sure you you don't think I get it Well no I mean how could you I'm having trouble making sense of this conversation James is speaking with authority but there's something wrong Something feels so wrong somehow I don't care about waving and smiling and having my picture taken with him,"How does James speak, according to the narrator?",A) With compassion,B) With grief,C) With hesitation,D) With authority,D) With authority,yes,6.2,0,1,1,1,,,,,,,,,,,,,,,,,,,,,,,,,,,,,,,,,,,,,,,,,,,,,,,,,,,,,,,,,,,,,,,,,150.09232887500002,157.85804208400077,0,,,0,,,0,,,1,7.754759416000525,7.754762415999721,,,,,,,,,,,,,,,,,,,,,,,,,,,,p_4,001,2024-05-04_13h50.52.415,speech_rate,2023.2.3,None,2024-05-04 13h51.04.887127 -0700,
,Someday_88_condition-4x.wav,Someday__Someday__Maybe__Unabridged___File_039_of_116_1.wav,It always seems like something that I should like more than I do though some flavors taste like dirty bath water Or maybe I don't like it on principle because I know it's supposed to be healthy If it was filled with calories and fat would I like it more and why oh why am I thinking about this right now This is hardly the time to make a ruling on such a difficult subject What no scotch I say and I can immediately feel my face flush red I put my hand on my hip in what I hope is a jaunty manner in an attempt to cover for the fact that I'm trying too hard,Why does the narrator say she puts her hand on her hip,A. To hide that she is trying too hard,B. To look attractive,C. To rest her hand,D. To be serious,A. To hide that she is trying too hard,no,7.205,,,,,,,,,,,,,0,0,0,0,,,,,,,,,251.58803654199983,,,,,,,,,,,,,,,254.6009603750008,254.6131151666671,254.61419575000036,261.82338091699967,261.8240703749998,261.83525445899977,262.09531391699966,262.09531391699966,264.9815217920004,265.7528894999996,1.1,3.119698124999559,1,[0.7805439159983507],[0.7805463329987106],,,,,,,,,,,,,,,265.7535631669998,273.21646924999914,1,7.453271917000166,7.453274500001498,0,,,0,,,0,,,157.85853054200015,157.86506295899926,157.86506295899926,251.5308570420002,1,[93.67153012500057],[93.67153295900061],251.5771166249997,251.58803654199983,251.58803654199983,251.58803654199983,254.60049754200008,1,[3.0197659169989493],[3.0197750000006636],,,,,,,,,,,,,p_4,001,2024-05-04_13h50.52.415,speech_rate,2023.2.3,None,2024-05-04 13h51.04.887127 -0700,
,Someday_71_condition-5x.wav,Someday__Someday__Maybe__Unabridged___File_033_of_116_5.wav,Mavis Alicia Carol I say to myself Mavis Alicia Carol Do you like to do this yourself I look up for my magazine to find Carol waving a strange metal object in front of my face I have no idea what it is or what it might be used for I'm sorry what is that Carol peers over her glasses at me in surprise You've never seen one of these before No But of course you have It's an eyelash curler I'm sure your mother has one,What is the object that the narrator has never seen before?,A. A cushion foundation,B. A colorful eyeliner,C. An eyelash curler,D. A brow gel,C. An eyelash curler,yes,5.976,,,,,,,,,,,,,0,1,1,1,0,0,0,0,0,0,0,0,289.94955975000084,,,,,,,,,,,,,,,276.8694463749998,276.8853718756675,276.88102379200063,282.8535726249993,282.86553720899974,282.87669766699946,283.08533729199917,283.08533729199917,284.58220812500076,285.40451258400026,2.0666666666666664,1.6784586670000863,1,[0.8316651249988354],[0.8316674589987088],,,,,,,289.93706954200024,289.94955975000084,289.94955975000084,300.650186375,I heard how much,1,[10.709840290999637],[10.70984312499968],,,,,,,,,,,,,,,,,,,,,,273.21748591699907,273.23016279200056,273.23016279200056,273.23016279200056,276.8692442089996,1,[3.650325791999421],[3.650328834000902],285.40505258399935,285.41362058400045,289.9362186670005,1,[4.530296874998385],[4.530302666998978],,,,,,,p_4,001,2024-05-04_13h50.52.415,speech_rate,2023.2.3,None,2024-05-04 13h51.04.887127 -0700,
,Someday_71_condition-5x.wav,Someday__Someday__Maybe__Unabridged___File_033_of_116_5.wav,Mavis Alicia Carol I say to myself Mavis Alicia Carol Do you like to do this yourself I look up for my magazine to find Carol waving a strange metal object in front of my face I have no idea what it is or what it might be used for I'm sorry what is that Carol peers over her glasses at me in surprise You've never seen one of these before No But of course you have It's an eyelash curler I'm sure your mother has one,What is the object that the narrator has never seen before?,A. A cushion foundation,B. A colorful eyeliner,C. An eyelash curler,D. A brow gel,C. An eyelash curler,yes,5.976,,,,,,,,,,,,,0,1,1,1,0,0,0,0,,,,,,,,,,,,,,,,,,,,,,,,,,,,,,,,,,,,,,,,,,,,,,,,,,,,,,,,,,,,,,,,,,,,,,,,,,,,,,,,,,,,,,,,,,p_4,001,2024-05-04_13h50.52.415,speech_rate,2023.2.3,None,2024-05-04 13h51.04.887127 -0700,
,Someday_71_condition-5x.wav,Someday__Someday__Maybe__Unabridged___File_033_of_116_5.wav,Mavis Alicia Carol I say to myself Mavis Alicia Carol Do you like to do this yourself I look up for my magazine to find Carol waving a strange metal object in front of my face I have no idea what it is or what it might be used for I'm sorry what is that Carol peers over her glasses at me in surprise You've never seen one of these before No But of course you have It's an eyelash curler I'm sure your mother has one,What is the object that the narrator has never seen before?,A. A cushion foundation,B. A colorful eyeliner,C. An eyelash curler,D. A brow gel,C. An eyelash curler,yes,5.976,,,,,,,,,,,,,0,1,1,1,,,,,,,,,,,,,,,,,,,,,,,,,,,,,,,,,,,,,,,,,,,,,,,,,,,,,300.65066545899936,307.3329617500003,1,6.671996499999295,6.671998957999676,0,,,0,,,0,,,,,,,,,,,,,,,,,,,,,,,,,,,,,,p_4,001,2024-05-04_13h50.52.415,speech_rate,2023.2.3,None,2024-05-04 13h51.04.887127 -0700,
,Someday_112_condition-4x.wav,Someday__Someday__Maybe__Unabridged___File_049_of_116_0.wav,It was all a blur of papers coming off the roll from the fax machine and time spent rushing from one building in Manhattan to another But then we ran out of fax paper and I kept forgetting to get a new roll so I had to cold read a few times and I'll admit there were a few days when I showed up at an audition not really prepared And then there was the big audition I had prepared for a small part in a Broadway play directed by Mike Stanley But I was so nervous to meet him that I left out an entire page of the scene and he didn't ask me to read it again,What happened during the narrator's audition for a Broadway play directed by Mike Stanley?,A. The narrator performed exceptionally well,B. The narrator forgot to bring her audition materials,C. The narrator left out an entire page of the scene,D. The narrator received a callback for another audition,C. The narrator left out an entire page of the scene,yes,7.57,,,,,,,,,,,,,0,2,2,2,0,0,0,0,0,0,0,0,322.88176629199916,,,,,,,,,,,,,,,307.8669071250006,307.8825529586668,307.881643834,315.44969779200073,315.4539172500008,315.4651262919997,315.6897190839991,315.6897190839991,318.21724687499955,318.93794399999933,1.0583333333333333,2.7270996659990487,1,[0.7302405830014322],[0.7302428750008403],,,,,,,322.8702235839992,322.88176629199916,322.88176629199916,324.5012036669996,,1,[1.6277996250009892],[1.6278023750001012],,,,,,,,,,,,,,,,,,,,,,307.3334932500002,307.34015349999936,307.34015349999936,307.34015349999936,307.8666687090008,1,[0.5317415419995086],[0.5317442079995089],318.93844266700034,318.9488318749991,322.86940516699906,1,[3.9304733329990995],[3.9304793329993117],,,,,,,p_4,001,2024-05-04_13h50.52.415,speech_rate,2023.2.3,None,2024-05-04 13h51.04.887127 -0700,
,Someday_112_condition-4x.wav,Someday__Someday__Maybe__Unabridged___File_049_of_116_0.wav,It was all a blur of papers coming off the roll from the fax machine and time spent rushing from one building in Manhattan to another But then we ran out of fax paper and I kept forgetting to get a new roll so I had to cold read a few times and I'll admit there were a few days when I showed up at an audition not really prepared And then there was the big audition I had prepared for a small part in a Broadway play directed by Mike Stanley But I was so nervous to meet him that I left out an entire page of the scene and he didn't ask me to read it again,What happened during the narrator's audition for a Broadway play directed by Mike Stanley?,A. The narrator performed exceptionally well,B. The narrator forgot to bring her audition materials,C. The narrator left out an entire page of the scene,D. The narrator received a callback for another audition,C. The narrator left out an entire page of the scene,yes,7.57,,,,,,,,,,,,,0,2,2,2,0,0,0,0,,,,,,,,,,,,,,,,,,,,,,,,,,,,,,,,,,,,,,,,,,,,,,,,,,,,,,,,,,,,,,,,,,,,,,,,,,,,,,,,,,,,,,,,,,p_4,001,2024-05-04_13h50.52.415,speech_rate,2023.2.3,None,2024-05-04 13h51.04.887127 -0700,
,Someday_112_condition-4x.wav,Someday__Someday__Maybe__Unabridged___File_049_of_116_0.wav,It was all a blur of papers coming off the roll from the fax machine and time spent rushing from one building in Manhattan to another But then we ran out of fax paper and I kept forgetting to get a new roll so I had to cold read a few times and I'll admit there were a few days when I showed up at an audition not really prepared And then there was the big audition I had prepared for a small part in a Broadway play directed by Mike Stanley But I was so nervous to meet him that I left out an entire page of the scene and he didn't ask me to read it again,What happened during the narrator's audition for a Broadway play directed by Mike Stanley?,A. The narrator performed exceptionally well,B. The narrator forgot to bring her audition materials,C. The narrator left out an entire page of the scene,D. The narrator received a callback for another audition,C. The narrator left out an entire page of the scene,yes,7.57,,,,,,,,,,,,,0,2,2,2,,,,,,,,,,,,,,,,,,,,,,,,,,,,,,,,,,,,,,,,,,,,,,,,,,,,,324.5016122920006,336.2189396249996,0,,,1,11.703688832998523,11.703691582999454,0,,,0,,,,,,,,,,,,,,,,,,,,,,,,,,,,,,p_4,001,2024-05-04_13h50.52.415,speech_rate,2023.2.3,None,2024-05-04 13h51.04.887127 -0700,
,Someday_120_condition-5x.wav,Someday__Someday__Maybe__Unabridged___File_053_of_116_2.wav,Everything you need is in each packet so it takes the guesswork out of dieting You sound like you've joined a cult What happens when you have to go back to the real world the world where you have to think for yourself Hopefully I'll be so weak and frail that food will have lost its appeal entirely Great plan And who's on Lisa today I'm pretty sure today's show is Women Who Wish Their Best Friends Would Stop Judging Them Har har I'm going to work now Do you want me to take the TV cord with me,"What topic is discussed on Lisa's show, in the narrator's joke?",A. Weight loss programs,B. The challenges of dieting,C. Women's relationships with their best friends,D. The appeal of joining a cult,C. Women's relationships with their best friends,yes,5.554,,,,,,,,,,,,,0,3,3,3,0,0,0,0,0,0,0,0,346.6177347089997,,,,,,,,,,,,,,,336.7848429170008,336.8009113756673,336.79618412499985,342.3406695419999,342.35653637500036,342.3675936670006,342.572765334,342.572765334,344.80760541699965,345.4572245420004,1,2.4134332919984445,1,[0.6589073749983072],[0.6589096249990689],,,,,,,346.6035447920003,346.6177347089997,346.6177347089997,347.8425672499998,,1,[1.2358140830001503],[1.2358169999988604],,,,,,,,,,,,,,,,,,,,,,336.2195766250006,336.22571054199943,336.22571054199943,336.22571054199943,336.78466024999943,1,[0.564687457999753],[0.5646901250001974],345.45772362500065,345.46734704200026,346.60270649999984,1,[1.1445797910000692],[1.1445825830014655],,,,,,,p_4,001,2024-05-04_13h50.52.415,speech_rate,2023.2.3,None,2024-05-04 13h51.04.887127 -0700,
,Someday_120_condition-5x.wav,Someday__Someday__Maybe__Unabridged___File_053_of_116_2.wav,Everything you need is in each packet so it takes the guesswork out of dieting You sound like you've joined a cult What happens when you have to go back to the real world the world where you have to think for yourself Hopefully I'll be so weak and frail that food will have lost its appeal entirely Great plan And who's on Lisa today I'm pretty sure today's show is Women Who Wish Their Best Friends Would Stop Judging Them Har har I'm going to work now Do you want me to take the TV cord with me,"What topic is discussed on Lisa's show, in the narrator's joke?",A. Weight loss programs,B. The challenges of dieting,C. Women's relationships with their best friends,D. The appeal of joining a cult,C. Women's relationships with their best friends,yes,5.554,,,,,,,,,,,,,0,3,3,3,0,0,0,0,,,,,,,,,,,,,,,,,,,,,,,,,,,,,,,,,,,,,,,,,,,,,,,,,,,,,,,,,,,,,,,,,,,,,,,,,,,,,,,,,,,,,,,,,,p_4,001,2024-05-04_13h50.52.415,speech_rate,2023.2.3,None,2024-05-04 13h51.04.887127 -0700,
,Someday_120_condition-5x.wav,Someday__Someday__Maybe__Unabridged___File_053_of_116_2.wav,Everything you need is in each packet so it takes the guesswork out of dieting You sound like you've joined a cult What happens when you have to go back to the real world the world where you have to think for yourself Hopefully I'll be so weak and frail that food will have lost its appeal entirely Great plan And who's on Lisa today I'm pretty sure today's show is Women Who Wish Their Best Friends Would Stop Judging Them Har har I'm going to work now Do you want me to take the TV cord with me,"What topic is discussed on Lisa's show, in the narrator's joke?",A. Weight loss programs,B. The challenges of dieting,C. Women's relationships with their best friends,D. The appeal of joining a cult,C. Women's relationships with their best friends,yes,5.554,,,,,,,,,,,,,0,3,3,3,,,,,,,,,,,,,,,,,,,,,,,,,,,,,,,,,,,,,,,,,,,,,,,,,,,,,347.8430053339998,360.9181342920001,0,,,0,,,1,13.064554957998553,13.064557332998447,0,,,,,,,,,,,,,,,,,,,,,,,,,,,,,,p_4,001,2024-05-04_13h50.52.415,speech_rate,2023.2.3,None,2024-05-04 13h51.04.887127 -0700,
,Someday_8_condition-4x.wav,Someday__Someday__Maybe__Unabridged___File_007_of_116_1.wav,And one accomplishment a year wasn't exactly what I had in mind Still wedged halfway beneath the bed it takes all my strength to push a barely used roller blade out of the way At this point I'm just sweeping my arm back and forth making the same movement under my bed as I would if making a snow angel only the accumulated junk is a lot harder to move I give up for a moment resting my cheek against the cool wooden floor with a sigh Do you have any idea how few actors make it people always say,What does the narrator push out of the way?,A. Roller blades,B. Snow angel drawings,C. Junk that's hard to move,D. Cool wooden floor,A. Roller blades,yes,7.295,,,,,,,,,,,,,0,4,4,4,0,0,0,0,0,0,0,0,374.77465200000006,,,,,,,,,,,,,,,361.4426636669996,361.4583332916666,361.45641841699944,368.75329279200014,368.75582583399955,368.767043459,368.97364279199974,368.97364279199974,370.6469497500002,373.8213316250003,2.041666666666667,3.5826722500005417,1,[3.1836105000002135],[3.1836130840001715],,,,,,,374.76351191699905,374.77465200000006,374.77465200000006,397.5563865000004,"I heard something about running back and forth. 
",1,[22.789725832999466],[22.789728791000016],,,,,,,,,,,,,,,,,,,,,,360.9186117089994,360.9249209169993,360.9249209169993,360.9249209169993,361.44244425000034,1,[0.5221357909995277],[0.5221385000004375],373.8219228750004,373.83555991699905,374.76250933399933,1,[0.940110999999888],[0.9401136249998672],,,,,,,p_4,001,2024-05-04_13h50.52.415,speech_rate,2023.2.3,None,2024-05-04 13h51.04.887127 -0700,
,Someday_8_condition-4x.wav,Someday__Someday__Maybe__Unabridged___File_007_of_116_1.wav,And one accomplishment a year wasn't exactly what I had in mind Still wedged halfway beneath the bed it takes all my strength to push a barely used roller blade out of the way At this point I'm just sweeping my arm back and forth making the same movement under my bed as I would if making a snow angel only the accumulated junk is a lot harder to move I give up for a moment resting my cheek against the cool wooden floor with a sigh Do you have any idea how few actors make it people always say,What does the narrator push out of the way?,A. Roller blades,B. Snow angel drawings,C. Junk that's hard to move,D. Cool wooden floor,A. Roller blades,yes,7.295,,,,,,,,,,,,,0,4,4,4,0,0,0,0,,,,,,,,,,,,,,,,,,,,,,,,,,,,,,,,,,,,,,,,,,,,,,,,,,,,,,,,,,,,,,,,,,,,,,,,,,,,,,,,,,,,,,,,,,p_4,001,2024-05-04_13h50.52.415,speech_rate,2023.2.3,None,2024-05-04 13h51.04.887127 -0700,
,Someday_8_condition-4x.wav,Someday__Someday__Maybe__Unabridged___File_007_of_116_1.wav,And one accomplishment a year wasn't exactly what I had in mind Still wedged halfway beneath the bed it takes all my strength to push a barely used roller blade out of the way At this point I'm just sweeping my arm back and forth making the same movement under my bed as I would if making a snow angel only the accumulated junk is a lot harder to move I give up for a moment resting my cheek against the cool wooden floor with a sigh Do you have any idea how few actors make it people always say,What does the narrator push out of the way?,A. Roller blades,B. Snow angel drawings,C. Junk that's hard to move,D. Cool wooden floor,A. Roller blades,yes,7.295,,,,,,,,,,,,,0,4,4,4,,,,,,,,,,,,,,,,,,,,,,,,,,,,,,,,,,,,,,,,,,,,,,,,,,,,,397.5568915420008,403.83192812500056,0,,,0,,,1,6.265522665999015,6.2655256660000305,0,,,,,,,,,,,,,,,,,,,,,,,,,,,,,,p_4,001,2024-05-04_13h50.52.415,speech_rate,2023.2.3,None,2024-05-04 13h51.04.887127 -0700,
,Someday_52_condition-5x.wav,Someday__Someday__Maybe__Unabridged___File_026_of_116_0.wav,She takes a deep breath and narrows her eyes and says slowly and deliberately I won't until I get something on my favorite show Law and Order You've never been on Law and Order I say surprised but you're perfect for it I know I'm even Irish and Italian Who knows cops and criminals better So why You haven't auditioned for them or People known for being on the most ridiculed talking animals show of the last decade sometimes have a hard time being taken seriously,What show does Dina want to get a role in?,A. "Law and Order",B. "There's Pierre",C. The talking animals show,D. A show about Irish and Italian people,A. "Law and Order",yes,5.772,,,,,,,,,,,,,0,5,5,5,0,0,0,0,0,0,0,0,413.45104970899956,,,,,,,,,,,,,,,404.37817474999974,404.39377087566595,404.39036783399933,410.15549220899993,410.17324270899917,410.18448520899983,410.44253650000064,410.44253650000064,411.6876863340003,412.4503915839996,1,1.4744267080004647,1,[0.7758967919999122],[0.7758988750010758],,,,,,,413.4403842920001,413.45104970899956,413.45104970899956,414.63032195899905,,1,[1.1868110420000448],[1.1868140000005951],,,,,,,,,,,,,,,,,,,,,,403.83253850000074,403.8403880419992,403.8403880419992,403.8403880419992,404.37794224999925,1,[0.5430500420006865],[0.5430526670006657],412.45089658399957,412.4561596250005,413.4395781250005,1,[0.9882805830002326],[0.9882831249997253],,,,,,,p_4,001,2024-05-04_13h50.52.415,speech_rate,2023.2.3,None,2024-05-04 13h51.04.887127 -0700,
,Someday_52_condition-5x.wav,Someday__Someday__Maybe__Unabridged___File_026_of_116_0.wav,She takes a deep breath and narrows her eyes and says slowly and deliberately I won't until I get something on my favorite show Law and Order You've never been on Law and Order I say surprised but you're perfect for it I know I'm even Irish and Italian Who knows cops and criminals better So why You haven't auditioned for them or People known for being on the most ridiculed talking animals show of the last decade sometimes have a hard time being taken seriously,What show does Dina want to get a role in?,A. "Law and Order",B. "There's Pierre",C. The talking animals show,D. A show about Irish and Italian people,A. "Law and Order",yes,5.772,,,,,,,,,,,,,0,5,5,5,0,0,0,0,,,,,,,,,,,,,,,,,,,,,,,,,,,,,,,,,,,,,,,,,,,,,,,,,,,,,,,,,,,,,,,,,,,,,,,,,,,,,,,,,,,,,,,,,,p_4,001,2024-05-04_13h50.52.415,speech_rate,2023.2.3,None,2024-05-04 13h51.04.887127 -0700,
,Someday_52_condition-5x.wav,Someday__Someday__Maybe__Unabridged___File_026_of_116_0.wav,She takes a deep breath and narrows her eyes and says slowly and deliberately I won't until I get something on my favorite show Law and Order You've never been on Law and Order I say surprised but you're perfect for it I know I'm even Irish and Italian Who knows cops and criminals better So why You haven't auditioned for them or People known for being on the most ridiculed talking animals show of the last decade sometimes have a hard time being taken seriously,What show does Dina want to get a role in?,A. "Law and Order",B. "There's Pierre",C. The talking animals show,D. A show about Irish and Italian people,A. "Law and Order",yes,5.772,,,,,,,,,,,,,0,5,5,5,,,,,,,,,,,,,,,,,,,,,,,,,,,,,,,,,,,,,,,,,,,,,,,,,,,,,414.6307769169998,418.96288812499915,1,4.321490292000817,4.321492582999781,0,,,0,,,0,,,,,,,,,,,,,,,,,,,,,,,,,,,,,,p_4,001,2024-05-04_13h50.52.415,speech_rate,2023.2.3,None,2024-05-04 13h51.04.887127 -0700,
,Someday_117_condition.wav,Someday__Someday__Maybe__Unabridged___File_052_of_116_1.wav,Maybe bagels are my problem Although one bagel doesn't seem like a lot of food I decide I will finish the bagel but not eat anything the rest of the day Except maybe a salad for dinner or soup No soup has hidden stuff in it Yes I'm fairly certain soup is another food that seems innocent but is actually fattening Chicken broth that only has like seven calories Can I get chicken broth at the deli Where can I get chicken broth You don't need to change anything,What conclusion does the narrator reach about soup?,A. Soup is always low in calories,B. Soup is a hidden source of calories,C. Soup is the healthiest food option,D. Soup is not a good choice for dinner,B. Soup is a hidden source of calories,no,27.07,,,,,,,,,,,,,0,6,6,6,,,,,,,,,418.97046570900056,,,,,,,,,,,,,,,419.52357145899987,419.55571366733284,419.5574187500006,446.62423420899904,446.6270601670003,446.6485323750003,446.8613289999994,446.8613289999994,453.5008932090004,454.45878608400017,10,6.825236208000206,1,[0.9669070830004785],[0.9669095410008595],,,,,,,,,,,,,,,454.4592965419997,463.7256249589991,0,,,1,9.25707500000135,9.257077833000949,0,,,0,,,,,,,,,,418.9633775839993,418.97046570900056,418.97046570900056,418.97046570900056,419.52315566700054,1,[0.5580725839990919],[0.5580752919995575],,,,,,,,,,,,,p_4,001,2024-05-04_13h50.52.415,speech_rate,2023.2.3,None,2024-05-04 13h51.04.887127 -0700,
,Someday_123_condition-4x.wav,Someday__Someday__Maybe__Unabridged___File_054_of_116_3.wav,I'll admit it's sort of a sick relationship to have with someone who is hardly in your life Lisa doesn't come on until noon and I'm regularly sleeping until then now because there's no reason to get up any earlier Jane is treating it as a big deal as if there's something really wrong with me She calls me from work every day just to make sure I get up I'm worried about you You're depressed I'm fine My roommate Francis Farmer Jane says melodramatically I'm a sensitive creative type I'm going through something,Why does Jane call the narrator character every day?,A. To share gossip,B. To check if the main character is awake,C. To discuss their favorite TV shows,D. To offer emotional support,B. To check if the main character is awake,no,7.54,,,,,,,,,,,,,0,7,7,7,,,,,,,,,463.733863292,,,,,,,,,,,,,,,468.93203687499954,468.947989708666,468.94595991700044,476.4819771250004,476.49381316700055,476.51525595900057,476.7179602920005,476.7179602920005,479.14753500000006,479.7817314589993,2.975,2.6055452920008975,1,[0.643463291999069],[0.6434656669989636],,,,,,,,,,,,,,,479.78217708400007,490.5589294170004,0,,,0,,,0,,,1,10.767791207999835,10.767793666000216,,,,,,,,463.7262512090001,463.733863292,463.733863292,463.733863292,468.93182549999983,1,[5.203392082999926],[5.203394791000392],,,,,,,,,,,,,p_4,001,2024-05-04_13h50.52.415,speech_rate,2023.2.3,None,2024-05-04 13h51.04.887127 -0700,
,Someday_62_condition-3x.wav,Someday__Someday__Maybe__Unabridged___File_030_of_116_1.wav,Maybe he'd think I'd played the part dozens of times That would teach the anonymous voice to respect me At the Old Horse Theater in Princeton New Jersey he said Did I detect a hint of sarcasm in his voice OK thanks There was a silence on the other end Any other details Well it's none of my business but I'd never heard of it So I looked it up and that theater doesn't seem to exist,Why did he look up the Old Horse Theater?,A. To have some information about it,B. To apply for a role there,C. To learn about its upcoming shows,"D. To plan a trip to Princeton, New Jersey",A. To have some information about it,yes,10.78125,,,,,,,,,,,,,0,8,8,8,0,0,0,0,0,0,0,0,514.0464343339991,,,,,,,,,,,,,,,493.14866641700064,493.16463983366725,493.16634966700076,503.94392495899956,503.94739537500027,503.95765754199965,504.16486287500084,504.16486287500084,506.52614308400007,508.35629466700084,3.9416666666666664,2.52794945900132,1,[1.8549824169986096],[1.854984624998906],,,,,,,514.0348887090004,514.0464343339991,514.0464343339991,539.7639992500008,The protaganist is offered a role at a theater that doesn't exist. ,1,[25.72584183300023],[25.725849083000867],,,,,,,,,,,,,,,,,,,,,,490.5594027919997,490.5642724169993,490.5642724169993,490.5642724169993,493.14847304199975,1,[2.588639333000174],[2.5886422080002376],508.3568104999995,508.36174645900064,514.0341129999997,1,[5.67683770900112],[5.676840292000634],,,,,,,p_4,001,2024-05-04_13h50.52.415,speech_rate,2023.2.3,None,2024-05-04 13h51.04.887127 -0700,
,Someday_62_condition-3x.wav,Someday__Someday__Maybe__Unabridged___File_030_of_116_1.wav,Maybe he'd think I'd played the part dozens of times That would teach the anonymous voice to respect me At the Old Horse Theater in Princeton New Jersey he said Did I detect a hint of sarcasm in his voice OK thanks There was a silence on the other end Any other details Well it's none of my business but I'd never heard of it So I looked it up and that theater doesn't seem to exist,Why did he look up the Old Horse Theater?,A. To have some information about it,B. To apply for a role there,C. To learn about its upcoming shows,"D. To plan a trip to Princeton, New Jersey",A. To have some information about it,yes,10.78125,,,,,,,,,,,,,0,8,8,8,0,0,0,0,,,,,,,,,,,,,,,,,,,,,,,,,,,,,,,,,,,,,,,,,,,,,,,,,,,,,,,,,,,,,,,,,,,,,,,,,,,,,,,,,,,,,,,,,,p_4,001,2024-05-04_13h50.52.415,speech_rate,2023.2.3,None,2024-05-04 13h51.04.887127 -0700,
,Someday_62_condition-3x.wav,Someday__Someday__Maybe__Unabridged___File_030_of_116_1.wav,Maybe he'd think I'd played the part dozens of times That would teach the anonymous voice to respect me At the Old Horse Theater in Princeton New Jersey he said Did I detect a hint of sarcasm in his voice OK thanks There was a silence on the other end Any other details Well it's none of my business but I'd never heard of it So I looked it up and that theater doesn't seem to exist,Why did he look up the Old Horse Theater?,A. To have some information about it,B. To apply for a role there,C. To learn about its upcoming shows,"D. To plan a trip to Princeton, New Jersey",A. To have some information about it,yes,10.78125,,,,,,,,,,,,,0,8,8,8,,,,,,,,,,,,,,,,,,,,,,,,,,,,,,,,,,,,,,,,,,,,,,,,,,,,,539.7645143339996,549.1327959999999,0,,,1,9.357656666999901,9.357659250001234,0,,,0,,,,,,,,,,,,,,,,,,,,,,,,,,,,,,p_4,001,2024-05-04_13h50.52.415,speech_rate,2023.2.3,None,2024-05-04 13h51.04.887127 -0700,
,Someday_7_condition-3x.wav,Someday__Someday__Maybe__Unabridged___File_007_of_116_0.wav,You start out with a three year goal which then becomes a five year goal and before you know it you're still calling yourself an actor but most days you're being assigned a locker outside the cafeteria of the General Electric building so you can change into a borrowed pink polyester lunch lady uniform and serve lukewarm lasagna to a bunch of businessmen who call you excuse me I've made some progress but not enough to tell me for sure that I'm doing the right thing with my life It took most of the first year just to get the coveted waitressing job at the comedy club,What endeavor consumed most of the first year for the narrator?,A. Becoming a successful actress,B. Getting a job at General Electric,C. Getting a waitressing job,D. Becoming a comedian,C. Getting a waitressing job,yes,10.84875,,,,,,,,,,,,,0,9,9,9,0,0,0,0,0,0,0,0,569.2487885419996,,,,,,,,,,,,,,,552.1170149999998,552.1305202916667,552.1340756249992,562.9804483339994,562.9829098749997,562.9941430840008,563.2519283340007,563.2519283340007,565.7961563339995,566.6421381670007,3.0083333333333333,2.762067459001628,1,[0.8710535840000375],[0.8710558750008204],,,,,,,569.2362957090008,569.2487885419996,569.2487885419996,593.2169519590007,Worried about wasting effort and possibly becoming a lunch lady. ,1,[23.97726608300036],[23.977269250000973],,,,,,,,,,,,,,,,,,,,,,549.1334006249999,549.1462340420003,549.1462340420003,549.1462340420003,552.1167318339994,1,[2.9806797499986715],[2.9807285829992907],566.6426601669991,566.6627707919997,569.2354547920004,1,[2.591873207999015],[2.591882832999545],,,,,,,p_4,001,2024-05-04_13h50.52.415,speech_rate,2023.2.3,None,2024-05-04 13h51.04.887127 -0700,
,Someday_7_condition-3x.wav,Someday__Someday__Maybe__Unabridged___File_007_of_116_0.wav,You start out with a three year goal which then becomes a five year goal and before you know it you're still calling yourself an actor but most days you're being assigned a locker outside the cafeteria of the General Electric building so you can change into a borrowed pink polyester lunch lady uniform and serve lukewarm lasagna to a bunch of businessmen who call you excuse me I've made some progress but not enough to tell me for sure that I'm doing the right thing with my life It took most of the first year just to get the coveted waitressing job at the comedy club,What endeavor consumed most of the first year for the narrator?,A. Becoming a successful actress,B. Getting a job at General Electric,C. Getting a waitressing job,D. Becoming a comedian,C. Getting a waitressing job,yes,10.84875,,,,,,,,,,,,,0,9,9,9,0,0,0,0,,,,,,,,,,,,,,,,,,,,,,,,,,,,,,,,,,,,,,,,,,,,,,,,,,,,,,,,,,,,,,,,,,,,,,,,,,,,,,,,,,,,,,,,,,p_4,001,2024-05-04_13h50.52.415,speech_rate,2023.2.3,None,2024-05-04 13h51.04.887127 -0700,
,Someday_7_condition-3x.wav,Someday__Someday__Maybe__Unabridged___File_007_of_116_0.wav,You start out with a three year goal which then becomes a five year goal and before you know it you're still calling yourself an actor but most days you're being assigned a locker outside the cafeteria of the General Electric building so you can change into a borrowed pink polyester lunch lady uniform and serve lukewarm lasagna to a bunch of businessmen who call you excuse me I've made some progress but not enough to tell me for sure that I'm doing the right thing with my life It took most of the first year just to get the coveted waitressing job at the comedy club,What endeavor consumed most of the first year for the narrator?,A. Becoming a successful actress,B. Getting a job at General Electric,C. Getting a waitressing job,D. Becoming a comedian,C. Getting a waitressing job,yes,10.84875,,,,,,,,,,,,,0,9,9,9,,,,,,,,,,,,,,,,,,,,,,,,,,,,,,,,,,,,,,,,,,,,,,,,,,,,,593.2174495420004,603.2171342919992,1,9.988363874999777,9.98836662499889,0,,,0,,,0,,,,,,,,,,,,,,,,,,,,,,,,,,,,,,p_4,001,2024-05-04_13h50.52.415,speech_rate,2023.2.3,None,2024-05-04 13h51.04.887127 -0700,
,Someday_68_condition-4x.wav,Someday__Someday__Maybe__Unabridged___File_033_of_116_2.wav,I'm looking into a giant mirror on a wall of mirrors each framed by dozens of fluorescent light bulbs In the blinding light my face looks nothing like the face I have in Brooklyn I wonder if this is my real face or if the face I have in Brooklyn is the real one and what my queen's face might look like Um no not that I can think of I tell her I wonder if I will over time develop preferences and what they might be in regard to my face being made up,How does the narrator describe the mirror she is looking at?,A. Framed by fluorescent lights,B. Vintage,C. Broken,D. Not big enough,A. Framed by fluorescent lights,yes,7.455,,,,,,,,,,,,,0,10,10,10,0,0,0,0,0,0,0,0,616.0835352920003,,,,,,,,,,,,,,,603.8563995000004,603.8718415416663,603.8699145840001,611.3227543749999,611.3330179589993,611.3540534589993,611.6098007090004,611.6098007090004,614.1600296249999,614.8119688749994,2.041666666666667,2.776614874999723,1,[0.6609816250002041],[0.6609837919986603],,,,,,,616.071094334,616.0835352920003,616.0835352920003,624.8260891669997,I heard face,1,[8.751813000000766],[8.751816291000068],,,,,,,,,,,,,,,,,,,,,,603.2177072089999,603.2256075419991,603.2256075419991,603.2256075419991,603.8561997090001,1,[0.6363646250010788],[0.6363678330017137],614.8125135419996,614.8177765420005,616.0702484169997,1,[1.2570989169998938],[1.2571021249987098],,,,,,,p_4,001,2024-05-04_13h50.52.415,speech_rate,2023.2.3,None,2024-05-04 13h51.04.887127 -0700,
,Someday_68_condition-4x.wav,Someday__Someday__Maybe__Unabridged___File_033_of_116_2.wav,I'm looking into a giant mirror on a wall of mirrors each framed by dozens of fluorescent light bulbs In the blinding light my face looks nothing like the face I have in Brooklyn I wonder if this is my real face or if the face I have in Brooklyn is the real one and what my queen's face might look like Um no not that I can think of I tell her I wonder if I will over time develop preferences and what they might be in regard to my face being made up,How does the narrator describe the mirror she is looking at?,A. Framed by fluorescent lights,B. Vintage,C. Broken,D. Not big enough,A. Framed by fluorescent lights,yes,7.455,,,,,,,,,,,,,0,10,10,10,0,0,0,0,,,,,,,,,,,,,,,,,,,,,,,,,,,,,,,,,,,,,,,,,,,,,,,,,,,,,,,,,,,,,,,,,,,,,,,,,,,,,,,,,,,,,,,,,,p_4,001,2024-05-04_13h50.52.415,speech_rate,2023.2.3,None,2024-05-04 13h51.04.887127 -0700,
,Someday_68_condition-4x.wav,Someday__Someday__Maybe__Unabridged___File_033_of_116_2.wav,I'm looking into a giant mirror on a wall of mirrors each framed by dozens of fluorescent light bulbs In the blinding light my face looks nothing like the face I have in Brooklyn I wonder if this is my real face or if the face I have in Brooklyn is the real one and what my queen's face might look like Um no not that I can think of I tell her I wonder if I will over time develop preferences and what they might be in regard to my face being made up,How does the narrator describe the mirror she is looking at?,A. Framed by fluorescent lights,B. Vintage,C. Broken,D. Not big enough,A. Framed by fluorescent lights,yes,7.455,,,,,,,,,,,,,0,10,10,10,,,,,,,,,,,,,,,,,,,,,,,,,,,,,,,,,,,,,,,,,,,,,,,,,,,,,624.8265893339994,633.236779375,1,8.40021729199907,8.40021974999945,0,,,0,,,0,,,,,,,,,,,,,,,,,,,,,,,,,,,,,,p_4,001,2024-05-04_13h50.52.415,speech_rate,2023.2.3,None,2024-05-04 13h51.04.887127 -0700,
,Someday_125_condition-4x.wav,Someday__Someday__Maybe__Unabridged___File_054_of_116_5.wav,I sit up as if he might be able to see through the telephone that I was lying down at an undignified hour still in the shorts and tank top I slept in I clear my throat and try to make my voice sound more awake It's me It's her That doesn't sound right It is I Hello I Did I wake you up No I'm awake Have a cold Oh shoot Is it a really bad one Joe has an audition for you I've just made an extremely speedy recovery Great Great,What does the narrator say she has?,A. A cold,B. A headache,C. A sore throat,D. A flu,A. A cold,yes,7.4825,,,,,,,,,,,,,0,11,11,11,0,0,0,0,0,0,0,0,645.8156407089991,,,,,,,,,,,,,,,633.8751556250008,633.890787708666,633.8885304590003,641.3787492499996,641.379690709,641.3909177499991,641.6054816670003,641.6054816670003,643.4007717090008,644.1149244589997,1.975,1.9822002910004812,1,[0.7268504579988075],[0.7268526659991039],,,,,,,645.8040550000005,645.8156407089991,645.8156407089991,652.8111466669998,,1,[7.0038676250005665],[7.003873625000779],,,,,,,,,,,,,,,,,,,,,,633.2373160000006,633.2501482089992,633.2501482089992,633.2501482089992,633.8749418749994,1,[0.6355514999995648],[0.6355542080000305],644.1154499589993,644.1200529590005,645.8031324170006,1,[1.6872171250015526],[1.6872233330013842],,,,,,,p_4,001,2024-05-04_13h50.52.415,speech_rate,2023.2.3,None,2024-05-04 13h51.04.887127 -0700,
,Someday_125_condition-4x.wav,Someday__Someday__Maybe__Unabridged___File_054_of_116_5.wav,I sit up as if he might be able to see through the telephone that I was lying down at an undignified hour still in the shorts and tank top I slept in I clear my throat and try to make my voice sound more awake It's me It's her That doesn't sound right It is I Hello I Did I wake you up No I'm awake Have a cold Oh shoot Is it a really bad one Joe has an audition for you I've just made an extremely speedy recovery Great Great,What does the narrator say she has?,A. A cold,B. A headache,C. A sore throat,D. A flu,A. A cold,yes,7.4825,,,,,,,,,,,,,0,11,11,11,0,0,0,0,,,,,,,,,,,,,,,,,,,,,,,,,,,,,,,,,,,,,,,,,,,,,,,,,,,,,,,,,,,,,,,,,,,,,,,,,,,,,,,,,,,,,,,,,,p_4,001,2024-05-04_13h50.52.415,speech_rate,2023.2.3,None,2024-05-04 13h51.04.887127 -0700,
,Someday_125_condition-4x.wav,Someday__Someday__Maybe__Unabridged___File_054_of_116_5.wav,I sit up as if he might be able to see through the telephone that I was lying down at an undignified hour still in the shorts and tank top I slept in I clear my throat and try to make my voice sound more awake It's me It's her That doesn't sound right It is I Hello I Did I wake you up No I'm awake Have a cold Oh shoot Is it a really bad one Joe has an audition for you I've just made an extremely speedy recovery Great Great,What does the narrator say she has?,A. A cold,B. A headache,C. A sore throat,D. A flu,A. A cold,yes,7.4825,,,,,,,,,,,,,0,11,11,11,,,,,,,,,,,,,,,,,,,,,,,,,,,,,,,,,,,,,,,,,,,,,,,,,,,,,652.8116409169997,658.0194860419997,0,,,0,,,0,,,1,5.200015000000349,5.2000174170007085,,,,,,,,,,,,,,,,,,,,,,,,,,,,p_4,001,2024-05-04_13h50.52.415,speech_rate,2023.2.3,None,2024-05-04 13h51.04.887127 -0700,
,Someday_67_condition-3x.wav,Someday__Someday__Maybe__Unabridged___File_033_of_116_1.wav,Well I'm doing all right I guess I imagine myself saying but I'm about three inches from where I really want to be I think of how much effort has taken me to even be a 29 I can't imagine what else I could do to be a 26 but it makes sense too that the Cordelia Biscaynes of the world are literally measurably different from the rest of us Three inches might as well be 300 to me today Hi I'm Carol,What size does the narrator wear?,A. 29,B. 26,C. 30,D. 28,A. 29,no,10.97625,,,,,,,,,,,,,0,12,12,12,,,,,,,,,658.0259434590007,,,,,,,,,,,,,,,658.6371425420002,658.6527563756665,658.6519568339991,669.6369110420001,669.6386332919992,669.6599945420003,669.8712506249994,669.8712506249994,674.2878535420004,675.2042966249992,3.591666666666667,4.603504833999978,1,[0.9256263329989451],[0.9256283750000875],,,,,,,,,,,,,,,675.2047410840005,685.3207524589998,1,10.108234708000964,10.108237124999505,0,,,0,,,0,,,,,,,,,,658.0199732090005,658.0259434590007,658.0259434590007,658.0259434590007,658.6369265840003,1,[0.6155792499994277],[0.61558495799909],,,,,,,,,,,,,p_4,001,2024-05-04_13h50.52.415,speech_rate,2023.2.3,None,2024-05-04 13h51.04.887127 -0700,
,Someday_65_condition-2x.wav,Someday__Someday__Maybe__Unabridged___File_032_of_116_0.wav,From the minute I walk into the wardrobe fitting in a trailer near mine I'm confused There are two giant rolling racks one full of tan trousers one stuffed with 30 or 40 identical blue shirts Oh Are there are there more people coming I ask a harried looking woman nearby She looks at me as though I've said something strange what oh the racks No those are all for you But aren't these all the same pants I say laughing a little,What does the narrator find confusing in the wardrobe fitting?,A. The lack of clothing options,B. The number of people there,C. The presence of a harried woman,D. The identical blue shirts and tan trousers,D. The identical blue shirts and tan trousers,no,14.04496875,,,,,,,,,,,,,0,13,13,13,,,,,,,,,685.3261559170005,,,,,,,,,,,,,,,687.7750588340004,687.804854792334,687.7952075840003,701.8389081250007,701.8566222919999,701.8787769999999,702.0780904589992,702.0780904589992,708.1153741670005,712.1445447919996,10.0,8.103672999999617,1,[4.0383002090002265],[4.038303000001179],,,,,,,,,,,,,,,712.1449762920001,716.5634719999998,0,,,0,,,0,,,1,4.409843415998694,4.4098458329990535,,,,,,,,685.3212228339999,685.3261559170005,685.3261559170005,685.3261559170005,687.7747997499991,1,[2.4528551250004966],[2.452860416000476],,,,,,,,,,,,,p_4,001,2024-05-04_13h50.52.415,speech_rate,2023.2.3,None,2024-05-04 13h51.04.887127 -0700,
,Someday_85_condition.wav,Someday__Someday__Maybe__Unabridged___File_038_of_116_1.wav,He hands me a paper badge with my name printed on it and says Yes it's okay for me to go up The elevator empties out around the 20th floor so I quickly try to use the smoked mirror walls to check my face and hair and outfit I'm wearing my black stretchy turtleneck with my black wool mini skirt black tights and Doc Martens lace up boots And now I can see in the reflection in the elevator mirror that the skirt is too short I try to pull it down but then my sweater isn't long enough and if I pull the skirt down to where it looks better an inch of my stomach shows,What does the narrator realize about her outfit when she checks her reflection?,A. Her turtleneck is too tight,B. Her boots don't match,C. Her skirt is too short,D. Her hair is a mess,C. Her skirt is too short,no,30.01,,,,,,,,,,,,,0,14,14,14,,,,,,,,,716.5708050840003,,,,,,,,,,,,,,,719.9926153750002,720.0394765000008,720.0319445839996,750.0309546249991,750.0508712499995,750.0728889170005,750.276269209,750.276269209,754.9852236669994,756.5968675839995,9.966666666666667,4.884863417000815,1,[1.6212792080004874],[1.621281290999832],,,,,,,,,,,,,,,756.5973649999996,774.9623714589998,1,18.356564874999094,18.356567666000046,0,,,0,,,0,,,,,,,,,,716.5639526670002,716.5708050840003,716.5708050840003,716.5708050840003,719.9921113340006,1,[3.425343499999144],[3.4253827499996987],,,,,,,,,,,,,p_4,001,2024-05-04_13h50.52.415,speech_rate,2023.2.3,None,2024-05-04 13h51.04.887127 -0700,
,Someday_69_condition.wav,Someday__Someday__Maybe__Unabridged___File_033_of_116_3.wav,Mmm let me see Carol puts on the glasses that hang on a chain around her neck and brings her face just inches from mine I hold very still as if I'm being examined in a doctor's office Well you have some freckles it's true I don't think they're distracting though I don't see them as a problem but I can even out your skin tone if that's what concerns you Carol sighs I don't think she likes me Okay great whatever you think thanks Want a magazine,What does Carol suggest to the main character regarding her freckles?,A. Cover them up with makeup,B. Embrace them as unique,C. Remove them with a cream,D. Get freckle tattoos,A. Cover them up with makeup,no,29.52,,,,,,,,,,,,,0,15,15,15,,,,,,,,,774.9758847499998,,,,,,,,,,,,,,,777.6479302499993,777.6801427083324,777.6808850420002,807.211525749999,807.2130878339995,807.2348223339995,807.4484447499999,807.4484447499999,810.8770197089998,811.6455470000001,10,3.614098791998913,1,[0.7816110419989855],[0.7816145419983513],,,,,,,,,,,,,,,811.6460179999995,849.5545336670002,0,,,1,37.89964091699949,37.899644041999636,0,,,0,,,,,,,,,,774.9629793339991,774.9758847499998,774.9758847499998,774.9758847499998,777.6477165420001,1,[2.6829853330000333],[2.682991832998596],,,,,,,,,,,,,p_4,001,2024-05-04_13h50.52.415,speech_rate,2023.2.3,None,2024-05-04 13h51.04.887127 -0700,
,Someday_51_condition-4x.wav,Someday__Someday__Maybe__Unabridged___File_025_of_116_4.wav,And he says Dina pauses as if the next part of the story is particularly hard to tell And he says only two things will happen with this One it's a giant hit and you're thanking me every year at the Emmys Or two they'll make the pilot it won't work it'll never air There's no scenario in between If for some reason they put this on the air and it isn't 100 fantastic he said it'll never last Dina and Leighton say together Then Dina slaps her palm to her forehead as if she still can't believe it,What does Dina do after telling the story?,A. She shakes her head,B. She slaps her palm to her forehead,C. She cries,D. She sits in silence,B. She slaps her palm to her forehead,yes,7.4925,,,,,,,,,,,,,0,16,16,16,0,0,0,0,0,0,0,0,864.7314638339994,,,,,,,,,,,,,,,852.2855630840004,852.298240000666,852.3135734169991,859.8160245840008,859.7974393749992,859.8081670840002,860.0175785419997,860.0175785419997,862.7824186670005,863.3938271669995,1.0166666666666664,2.9486106669992296,1,[0.6214952909995191],[0.6214975829989271],,,,,,,864.7195712089997,864.7314638339994,864.7314638339994,865.2654742499999,,1,[0.5426227500011009],[0.5426256250011647],,,,,,,,,,,,,,,,,,,,,,849.5549851670003,849.5617805420006,849.5617805420006,849.5617805420006,852.2852749590002,1,[2.7287220419984806],[2.7287301669985027],863.3943599169997,863.3987880839995,864.7187959999992,1,[1.323816459000227],[1.323821209000016],,,,,,,p_4,001,2024-05-04_13h50.52.415,speech_rate,2023.2.3,None,2024-05-04 13h51.04.887127 -0700,
,Someday_51_condition-4x.wav,Someday__Someday__Maybe__Unabridged___File_025_of_116_4.wav,And he says Dina pauses as if the next part of the story is particularly hard to tell And he says only two things will happen with this One it's a giant hit and you're thanking me every year at the Emmys Or two they'll make the pilot it won't work it'll never air There's no scenario in between If for some reason they put this on the air and it isn't 100 fantastic he said it'll never last Dina and Leighton say together Then Dina slaps her palm to her forehead as if she still can't believe it,What does Dina do after telling the story?,A. She shakes her head,B. She slaps her palm to her forehead,C. She cries,D. She sits in silence,B. She slaps her palm to her forehead,yes,7.4925,,,,,,,,,,,,,0,16,16,16,0,0,0,0,,,,,,,,,,,,,,,,,,,,,,,,,,,,,,,,,,,,,,,,,,,,,,,,,,,,,,,,,,,,,,,,,,,,,,,,,,,,,,,,,,,,,,,,,,p_4,001,2024-05-04_13h50.52.415,speech_rate,2023.2.3,None,2024-05-04 13h51.04.887127 -0700,
,Someday_51_condition-4x.wav,Someday__Someday__Maybe__Unabridged___File_025_of_116_4.wav,And he says Dina pauses as if the next part of the story is particularly hard to tell And he says only two things will happen with this One it's a giant hit and you're thanking me every year at the Emmys Or two they'll make the pilot it won't work it'll never air There's no scenario in between If for some reason they put this on the air and it isn't 100 fantastic he said it'll never last Dina and Leighton say together Then Dina slaps her palm to her forehead as if she still can't believe it,What does Dina do after telling the story?,A. She shakes her head,B. She slaps her palm to her forehead,C. She cries,D. She sits in silence,B. She slaps her palm to her forehead,yes,7.4925,,,,,,,,,,,,,0,16,16,16,,,,,,,,,,,,,,,,,,,,,,,,,,,,,,,,,,,,,,,,,,,,,,,,,,,,,865.2659522920003,874.1476462089995,0,,,1,8.872236832999988,8.872239124999396,0,,,0,,,,,,,,,,,,,,,,,,,,,,,,,,,,,,p_4,001,2024-05-04_13h50.52.415,speech_rate,2023.2.3,None,2024-05-04 13h51.04.887127 -0700,
,Someday_35_condition-4x.wav,Someday__Someday__Maybe__Unabridged___File_020_of_116_0.wav,Who put that there Oh No is that what I said Yes that was it I have no idea why it doesn't even make sense Who put that there How stupid I just couldn't think of anything else They laughed though I think they laughed Maybe they gasped in horror No they definitely laughed when I said that They gasped when I fell that's what it was Was it a gasp of disgust were they merely expressing concern for my safety I can't remember,What does the narrator wonder about the audience's reaction?,A. Whether they laughed or gasped,B. Whether they cried or screamed,C. Whether they left the play,D. Whether they were distracted,A. Whether they laughed or gasped,yes,7.3625,,,,,,,,,,,,,0,17,17,17,0,0,0,0,0,0,0,0,886.5616969999992,,,,,,,,,,,,,,,874.6823222919993,874.6979837086658,874.6948309170002,882.0657746249999,882.0676135419999,882.0788600840006,882.2859580420009,882.2859580420009,884.503620042,885.1775887919994,1.9666666666666666,2.40097595899897,1,[0.6829038329997275],[0.6829061250009545],,,,,,,886.5502419170007,886.5616969999992,886.5616969999992,896.4580543749998,Something about laughing.,1,[9.904314833000171],[9.904317624999749],,,,,,,,,,,,,,,,,,,,,,874.1481572089997,874.1537342920001,874.1537342920001,874.1537342920001,874.6821351670005,1,[0.5325935829987429],[0.5325962079987221],885.1781289999999,885.1833961249995,886.5495449999999,1,[1.370893958999659],[1.3708965420009918],,,,,,,p_4,001,2024-05-04_13h50.52.415,speech_rate,2023.2.3,None,2024-05-04 13h51.04.887127 -0700,
,Someday_35_condition-4x.wav,Someday__Someday__Maybe__Unabridged___File_020_of_116_0.wav,Who put that there Oh No is that what I said Yes that was it I have no idea why it doesn't even make sense Who put that there How stupid I just couldn't think of anything else They laughed though I think they laughed Maybe they gasped in horror No they definitely laughed when I said that They gasped when I fell that's what it was Was it a gasp of disgust were they merely expressing concern for my safety I can't remember,What does the narrator wonder about the audience's reaction?,A. Whether they laughed or gasped,B. Whether they cried or screamed,C. Whether they left the play,D. Whether they were distracted,A. Whether they laughed or gasped,yes,7.3625,,,,,,,,,,,,,0,17,17,17,0,0,0,0,,,,,,,,,,,,,,,,,,,,,,,,,,,,,,,,,,,,,,,,,,,,,,,,,,,,,,,,,,,,,,,,,,,,,,,,,,,,,,,,,,,,,,,,,,p_4,001,2024-05-04_13h50.52.415,speech_rate,2023.2.3,None,2024-05-04 13h51.04.887127 -0700,
,Someday_35_condition-4x.wav,Someday__Someday__Maybe__Unabridged___File_020_of_116_0.wav,Who put that there Oh No is that what I said Yes that was it I have no idea why it doesn't even make sense Who put that there How stupid I just couldn't think of anything else They laughed though I think they laughed Maybe they gasped in horror No they definitely laughed when I said that They gasped when I fell that's what it was Was it a gasp of disgust were they merely expressing concern for my safety I can't remember,What does the narrator wonder about the audience's reaction?,A. Whether they laughed or gasped,B. Whether they cried or screamed,C. Whether they left the play,D. Whether they were distracted,A. Whether they laughed or gasped,yes,7.3625,,,,,,,,,,,,,0,17,17,17,,,,,,,,,,,,,,,,,,,,,,,,,,,,,,,,,,,,,,,,,,,,,,,,,,,,,896.4585677920004,906.0842365419994,1,9.615516500000012,9.615518874999907,0,,,0,,,0,,,,,,,,,,,,,,,,,,,,,,,,,,,,,,p_4,001,2024-05-04_13h50.52.415,speech_rate,2023.2.3,None,2024-05-04 13h51.04.887127 -0700,
,Someday_26_condition-5x.wav,Someday__Someday__Maybe__Unabridged___File_015_of_116_2.wav,My stomach lurches The action between each line is the exact opposite of what the line is After kids are my number one priority it says rushing mom gets daughter to school just as the bell is ringing After the thing about always having time for friends looks at answering machine guiltily and decides to screen the call At the end the harried housewife stuffs an impossible amount of dirty clothes in the washer which miraculously come out clean and she gets a huge hug from her approving husband,What is the narrator's reaction to the script she's reading?,A. Her stomach lurches,B. She finds it amusing,C. She feels inspired,D. She is moved to tears,A. Her stomach lurches,no,5.578,,,,,,,,,,,,,0,18,18,18,,,,,,,,,906.0906863340006,,,,,,,,,,,,,,,908.6015203749994,908.6168245006668,908.6117336250009,914.2014622089991,914.2026311669997,914.213845667,914.4407661250007,914.4407661250007,920.1997938339991,920.8565727090008,1.1416666666666666,5.955219833000228,1,[0.669360666999637],[0.6693629579986009],,,,,,,,,,,,,,,920.8570012920009,932.5675400839991,0,,,1,11.70260345799943,11.702605832999325,0,,,0,,,,,,,,,,906.084814374999,906.0906863340006,906.0906863340006,906.0906863340006,908.6012477919994,1,[2.515993750001144],[2.5159962920006365],,,,,,,,,,,,,p_4,001,2024-05-04_13h50.52.415,speech_rate,2023.2.3,None,2024-05-04 13h51.04.887127 -0700,
,Someday_49_condition-3x.wav,Someday__Someday__Maybe__Unabridged___File_025_of_116_2.wav,Ancient history Dina says but she's smiling And what about ever since I saw Dina in class I've wanted to ask about the series she did And tonight with a drink in my hand and the giddy flush of the day behind me I'm finally feeling bold enough to bring it up The show she says sharing a look with Leighton who smiles sympathetically Sorry I don't mean to It's fine Dina says shaking her head You I don't mind telling,What is Dina's reaction to the narrator's question?,A. She feels uncomfortable,B. She doesn't mind talking about it,C. She gets angry,D. She is happy to receive the question,B. She doesn't mind talking about it,yes,10.61625,,,,,,,,,,,,,0,19,19,19,0,0,0,0,0,0,0,0,949.4074792089996,,,,,,,,,,,,,,,933.1528554590004,933.1685314586668,933.1687633340007,943.7755215420002,943.7871780839996,943.7984128749995,944.0069720419997,944.0069720419997,946.5702713749997,948.0365788750005,2.9583333333333335,2.7468229580008483,1,[1.4763787909996609],[1.476380957999936],,,,,,,949.3962291669995,949.4074792089996,949.4074792089996,966.9719053749996,She said "its fine I don't mind telling",1,[17.57240370799991],[17.572406749999573],,,,,,,,,,,,,,,,,,,,,,932.5679751249991,932.5738732499995,932.5738732499995,932.5738732499995,933.1526591670008,1,[0.5833804169997165],[0.5833830419996957],948.0371357090007,948.0416698339995,949.3953946250003,1,[1.357727791999423],[1.3577303750007559],,,,,,,p_4,001,2024-05-04_13h50.52.415,speech_rate,2023.2.3,None,2024-05-04 13h51.04.887127 -0700,
,Someday_49_condition-3x.wav,Someday__Someday__Maybe__Unabridged___File_025_of_116_2.wav,Ancient history Dina says but she's smiling And what about ever since I saw Dina in class I've wanted to ask about the series she did And tonight with a drink in my hand and the giddy flush of the day behind me I'm finally feeling bold enough to bring it up The show she says sharing a look with Leighton who smiles sympathetically Sorry I don't mean to It's fine Dina says shaking her head You I don't mind telling,What is Dina's reaction to the narrator's question?,A. She feels uncomfortable,B. She doesn't mind talking about it,C. She gets angry,D. She is happy to receive the question,B. She doesn't mind talking about it,yes,10.61625,,,,,,,,,,,,,0,19,19,19,0,0,0,0,,,,,,,,,,,,,,,,,,,,,,,,,,,,,,,,,,,,,,,,,,,,,,,,,,,,,,,,,,,,,,,,,,,,,,,,,,,,,,,,,,,,,,,,,,p_4,001,2024-05-04_13h50.52.415,speech_rate,2023.2.3,None,2024-05-04 13h51.04.887127 -0700,
,Someday_49_condition-3x.wav,Someday__Someday__Maybe__Unabridged___File_025_of_116_2.wav,Ancient history Dina says but she's smiling And what about ever since I saw Dina in class I've wanted to ask about the series she did And tonight with a drink in my hand and the giddy flush of the day behind me I'm finally feeling bold enough to bring it up The show she says sharing a look with Leighton who smiles sympathetically Sorry I don't mean to It's fine Dina says shaking her head You I don't mind telling,What is Dina's reaction to the narrator's question?,A. She feels uncomfortable,B. She doesn't mind talking about it,C. She gets angry,D. She is happy to receive the question,B. She doesn't mind talking about it,yes,10.61625,,,,,,,,,,,,,0,19,19,19,,,,,,,,,,,,,,,,,,,,,,,,,,,,,,,,,,,,,,,,,,,,,,,,,,,,,966.9724046669999,970.1898985419994,0,,,1,3.2076653329986584,3.207668166000076,0,,,0,,,,,,,,,,,,,,,,,,,,,,,,,,,,,,p_4,001,2024-05-04_13h50.52.415,speech_rate,2023.2.3,None,2024-05-04 13h51.04.887127 -0700,
,Someday_29_condition-3x.wav,Someday__Someday__Maybe__Unabridged___File_017_of_116_1.wav,You said you're new Who Me Well sort of yes I'm new to class but I've lived in New York for a little while two years over two years I worked for my dad at his school and then I was in a theater company for a long time before that touring and also I've done one commercial and that's it Ugh I'm babbling At least I didn't tell him the company was called Go Kids and we played stupid fairy tale characters and the only places we toured were elementary schools in the Tri State area Oh God what if he asks what company I was in I wish I hadn't mentioned the commercial either,What is the narrator worried about regarding her introduction to the person she meets on the street?,A. Revealing too much about her background,B. Not providing enough information,C. Mentioning the wrong company name,D. Being too concise in her introduction,A. Revealing too much about her background,yes,11.0775,,,,,,,,,,,,,0,20,20,20,0,0,0,0,0,0,0,0,987.9877721249995,,,,,,,,,,,,,,,970.8612350839994,970.8772553756664,970.8794111250008,981.9552175000008,981.9554556250005,981.9656602499999,982.2150056669998,982.2150056669998,985.43907425,986.1942317089997,2.466666666666667,3.4484172919983394,1,[0.764721625000675],[0.7647239159996388],,,,,,,987.9756280839993,987.9877721249995,987.9877721249995,1003.7473739590005,They talked about performing in elementary school. ,1,[15.768401000001177],[15.768404000000373],,,,,,,,,,,,,,,,,,,,,,970.1904704589997,970.2034453750002,970.2034453750002,970.2034453750002,970.8610452920002,1,[0.6689674579993152],[0.6689699169983214],986.194764333999,986.2037512919997,987.9747892920004,1,[1.7785715829995752],[1.7786162920001516],,,,,,,p_4,001,2024-05-04_13h50.52.415,speech_rate,2023.2.3,None,2024-05-04 13h51.04.887127 -0700,
,Someday_29_condition-3x.wav,Someday__Someday__Maybe__Unabridged___File_017_of_116_1.wav,You said you're new Who Me Well sort of yes I'm new to class but I've lived in New York for a little while two years over two years I worked for my dad at his school and then I was in a theater company for a long time before that touring and also I've done one commercial and that's it Ugh I'm babbling At least I didn't tell him the company was called Go Kids and we played stupid fairy tale characters and the only places we toured were elementary schools in the Tri State area Oh God what if he asks what company I was in I wish I hadn't mentioned the commercial either,What is the narrator worried about regarding her introduction to the person she meets on the street?,A. Revealing too much about her background,B. Not providing enough information,C. Mentioning the wrong company name,D. Being too concise in her introduction,A. Revealing too much about her background,yes,11.0775,,,,,,,,,,,,,0,20,20,20,0,0,0,0,,,,,,,,,,,,,,,,,,,,,,,,,,,,,,,,,,,,,,,,,,,,,,,,,,,,,,,,,,,,,,,,,,,,,,,,,,,,,,,,,,,,,,,,,,p_4,001,2024-05-04_13h50.52.415,speech_rate,2023.2.3,None,2024-05-04 13h51.04.887127 -0700,
,Someday_29_condition-3x.wav,Someday__Someday__Maybe__Unabridged___File_017_of_116_1.wav,You said you're new Who Me Well sort of yes I'm new to class but I've lived in New York for a little while two years over two years I worked for my dad at his school and then I was in a theater company for a long time before that touring and also I've done one commercial and that's it Ugh I'm babbling At least I didn't tell him the company was called Go Kids and we played stupid fairy tale characters and the only places we toured were elementary schools in the Tri State area Oh God what if he asks what company I was in I wish I hadn't mentioned the commercial either,What is the narrator worried about regarding her introduction to the person she meets on the street?,A. Revealing too much about her background,B. Not providing enough information,C. Mentioning the wrong company name,D. Being too concise in her introduction,A. Revealing too much about her background,yes,11.0775,,,,,,,,,,,,,0,20,20,20,,,,,,,,,,,,,,,,,,,,,,,,,,,,,,,,,,,,,,,,,,,,,,,,,,,,,1003.7478781249993,1011.2301787920005,1,7.470686083999681,7.470688875000633,0,,,0,,,0,,,,,,,,,,,,,,,,,,,,,,,,,,,,,,p_4,001,2024-05-04_13h50.52.415,speech_rate,2023.2.3,None,2024-05-04 13h51.04.887127 -0700,
,Someday_113_condition-3x.wav,Someday__Someday__Maybe__Unabridged___File_050_of_116_0.wav,She lives I think I need a manager Why do you need a manager I thought you just got an agent I did but they aren't getting me any auditions If you have no auditions what's there to manage A manager would help me get auditions How could a manager do that when the agents can't Well managers have fewer people so they can focus just on you And why do you have an agent at all Why not just have a manager You have to have an agent They're the only ones allowed to negotiate contracts Agents are franchised managers aren't,Why does the narrator want to get a manager?,A. To help negotiate contracts,B. To get auditions,C. Because agents are expensive,D. To manage the finances,B. To get auditions,no,10.5075,,,,,,,,,,,,,0,21,21,21,,,,,,,,,1011.2376671670008,,,,,,,,,,,,,,,1012.5630680840004,1012.5786290836661,1012.578738917,1023.0767622090007,1023.0919372919998,1023.1031720840001,1023.3433916670001,1023.3433916670001,1026.0620692089997,1026.653704541999,3.566666666666667,2.9343880840006022,1,[0.60065745799875],[0.6006598749991099],,,,,,,,,,,,,,,1026.6542112919997,1033.4438232089997,0,,,1,6.780944707999879,6.780947624998589,0,,,0,,,,,,,,,,1011.2306625420006,1011.2376671670008,1011.2376671670008,1011.2376671670008,1012.5628702920003,1,[1.3307454170007986],[1.330748083000799],,,,,,,,,,,,,p_4,001,2024-05-04_13h50.52.415,speech_rate,2023.2.3,None,2024-05-04 13h51.04.887127 -0700,
,Someday_18_condition-5x.wav,Someday__Someday__Maybe__Unabridged___File_011_of_116_1.wav,The D train between Brooklyn and Manhattan is one of my favorite lines because at one the train emerges from underground and goes high over the river along the Manhattan Bridge Sometimes I put on my headphones and listen to music Sometimes I do the New York Times crossword puzzle And sometimes I read But no matter what else I'm doing I consider it very bad luck if I forget to look up as the train crosses over the East River even just for a second before it goes back underground It's just a superstition,Why does the narrator always look up when the D train crosses the East River?,A. To enjoy the view,B. To avoid bad luck,C. To read the subway signs,D. To see if it's raining,B. To avoid bad luck,yes,5.618,,,,,,,,,,,,,0,22,22,22,0,0,0,0,0,0,0,0,1044.3404862499992,,,,,,,,,,,,,,,1035.5409850840006,1035.5569672916665,1035.5518489999995,1041.1644671249996,1041.1762405419995,1041.187473124999,1041.3948805,1041.3948805,1042.5589117090003,1043.2759085840007,1,1.3467955829983111,1,[0.7264005419983732],[0.7264030419992196],,,,,,,1044.3283017499998,1044.3404862499992,1044.3404862499992,1044.916266917,,1,[0.5845148749995133],[0.5845178330000635],,,,,,,,,,,,,,,,,,,,,,1033.4443890420007,1033.4574332499997,1033.4574332499997,1033.4574332499997,1035.540787,1,[2.0946262079996814],[2.094628749999174],1043.276428792,1043.2807697919998,1044.3274836250002,1,[1.0505892500004848],[1.050592334000612],,,,,,,p_4,001,2024-05-04_13h50.52.415,speech_rate,2023.2.3,None,2024-05-04 13h51.04.887127 -0700,
,Someday_18_condition-5x.wav,Someday__Someday__Maybe__Unabridged___File_011_of_116_1.wav,The D train between Brooklyn and Manhattan is one of my favorite lines because at one the train emerges from underground and goes high over the river along the Manhattan Bridge Sometimes I put on my headphones and listen to music Sometimes I do the New York Times crossword puzzle And sometimes I read But no matter what else I'm doing I consider it very bad luck if I forget to look up as the train crosses over the East River even just for a second before it goes back underground It's just a superstition,Why does the narrator always look up when the D train crosses the East River?,A. To enjoy the view,B. To avoid bad luck,C. To read the subway signs,D. To see if it's raining,B. To avoid bad luck,yes,5.618,,,,,,,,,,,,,0,22,22,22,0,0,0,0,,,,,,,,,,,,,,,,,,,,,,,,,,,,,,,,,,,,,,,,,,,,,,,,,,,,,,,,,,,,,,,,,,,,,,,,,,,,,,,,,,,,,,,,,,p_4,001,2024-05-04_13h50.52.415,speech_rate,2023.2.3,None,2024-05-04 13h51.04.887127 -0700,
,Someday_18_condition-5x.wav,Someday__Someday__Maybe__Unabridged___File_011_of_116_1.wav,The D train between Brooklyn and Manhattan is one of my favorite lines because at one the train emerges from underground and goes high over the river along the Manhattan Bridge Sometimes I put on my headphones and listen to music Sometimes I do the New York Times crossword puzzle And sometimes I read But no matter what else I'm doing I consider it very bad luck if I forget to look up as the train crosses over the East River even just for a second before it goes back underground It's just a superstition,Why does the narrator always look up when the D train crosses the East River?,A. To enjoy the view,B. To avoid bad luck,C. To read the subway signs,D. To see if it's raining,B. To avoid bad luck,yes,5.618,,,,,,,,,,,,,0,22,22,22,,,,,,,,,,,,,,,,,,,,,,,,,,,,,,,,,,,,,,,,,,,,,,,,,,,,,1044.9166607499992,1060.1450642090003,1,15.219343040998865,15.219345457999225,0,,,0,,,0,,,,,,,,,,,,,,,,,,,,,,,,,,,,,,p_4,001,2024-05-04_13h50.52.415,speech_rate,2023.2.3,None,2024-05-04 13h51.04.887127 -0700,
,Someday_103_condition-2x.wav,Someday__Someday__Maybe__Unabridged___File_045_of_116_1.wav,So I let it soften back down to the small giggle and finally exhausted but happy I let out a little sigh that's interrupted by an almost involuntary hiccup like I gulp down too much champagne all at once It's a blur from that point on a series of snapshots that flashed before me The woman in the back mouthing see to the disgruntled man who nods and shrugs at her in a way That says who knew and the man in glasses asking me to wait in the waiting room,What happens after the narrator finishes their audition?,A. She is congratulated by the casting director,B. She is asked to perform the laugh again,C. She is asked to wait in the waiting room,D. She is immediately given the role,C. She is asked to wait in the waiting room,no,14.345,,,,,,,,,,,,,0,23,23,23,,,,,,,,,1060.1587577089995,,,,,,,,,,,,,,,1060.6600723339998,1060.6756962916663,1060.6790975000004,1075.0269091669998,1075.0290492090007,1075.050477375,1075.265155084,1075.265155084,1081.9379255420008,1082.7666892920006,10.0,6.857201417000397,1,[0.8387663749999774],[0.8387685830002738],,,,,,,,,,,,,,,1082.7671788749994,1091.6271600839991,0,,,0,,,1,8.850633583999297,8.850636249999297,0,,,,,,,,,,1060.1456393339995,1060.1587577089995,1060.1587577089995,1060.1587577089995,1060.6598424999993,1,[0.5137458749995858],[0.5137485420000303],,,,,,,,,,,,,p_4,001,2024-05-04_13h50.52.415,speech_rate,2023.2.3,None,2024-05-04 13h51.04.887127 -0700,
,Someday_122_condition.wav,Someday__Someday__Maybe__Unabridged___File_054_of_116_2.wav,When I first started watching it was just for a few minutes right after Lisa and before the first commercial break I was more fascinated than interested I would use the show as a kind of acting exercise challenging myself with the hokey dialogue saying the lines out loud to myself just to see if I could make the scenes feel more real than the actors on the show did I wondered if it was the actor's fault that the whole thing seemed so ridiculous or if there's truly nothing you can do to make it less phony given how phony it looks,How does the narrator approach the show?,A. As a truly fascinating show,B. As an acting practice,C. She never watches it,D. As a way to pass some quality time,B. As an acting practice,no,29.49996875,,,,,,,,,,,,,0,24,24,24,,,,,,,,,1091.6336257090006,,,,,,,,,,,,,,,1096.1457021250008,1096.177819125333,1096.17879575,1125.679990999999,1125.6815161249997,1125.7030414590008,1125.9048687499999,1125.9048687499999,1128.9304043339998,1129.8584425419995,9.983333333333334,3.2027677499991114,1,[0.9374061669986986],[0.937408666999545],,,,,,,,,,,,,,,1129.8588753749991,1135.6567391249991,0,,,1,5.789369707999867,5.789372708000883,0,,,0,,,,,,,,,,1091.6276354170004,1091.6336257090006,1091.6336257090006,1091.6336257090006,1096.1454241249994,1,[4.516412999999375],[4.516420708998339],,,,,,,,,,,,,p_4,001,2024-05-04_13h50.52.415,speech_rate,2023.2.3,None,2024-05-04 13h51.04.887127 -0700,
,Someday_33_condition-3x.wav,Someday__Someday__Maybe__Unabridged___File_018_of_116_2.wav,Well I wouldn't say I'd be amazing in it although thanks for saying so I think I'd just be okay in it I mean it is sort of right in my wheelhouse but I think you'd actually be great in it I'm serious I mean I could do it I guess and I probably would do it if they asked but I think my problem with it isn't the play itself but the guy who's in it now What's his name Anyway it doesn't matter I just think he's not really acting so much as just smoldering or something up there and I'm like buddy you can't just play every scene sexy I mean that's not an active choice,What issue does the narrator have with the actor currently in the play?,A. She thinks he's too active,B. She believes he's too serious,C. She thinks he's smoldering too much,D. She has no issue with him,C. She thinks he's smoldering too much,yes,11.45625,,,,,,,,,,,,,0,25,25,25,0,0,0,0,0,0,0,0,1156.7936960000006,,,,,,,,,,,,,,,1138.197849917,1138.2133892506665,1138.2170709170005,1149.6705016670003,1149.6722664169993,1149.6824404170002,1149.8833400420008,1149.8833400420008,1152.5853671669993,1155.7491259170001,1.9916666666666665,5.4506173329991725,1,[3.1726365000013175],[3.172639292000895],,,,,,,1156.7828100839997,1156.7936960000006,1156.7936960000006,1181.1339723340006,the narrator is critiquing a specific actor in a play. ,1,[24.34795558299993],[24.347958667000057],,,,,,,,,,,,,,,,,,,,,,1135.6572958340003,1135.6646985419993,1135.6646985419993,1135.6646985419993,1138.197582499999,1,[2.5386251250001806],[2.538627792000625],1155.74962375,1155.7541529169994,1156.7820630839997,1,[1.031997333999243],[1.0320002089993068],,,,,,,p_4,001,2024-05-04_13h50.52.415,speech_rate,2023.2.3,None,2024-05-04 13h51.04.887127 -0700,
,Someday_33_condition-3x.wav,Someday__Someday__Maybe__Unabridged___File_018_of_116_2.wav,Well I wouldn't say I'd be amazing in it although thanks for saying so I think I'd just be okay in it I mean it is sort of right in my wheelhouse but I think you'd actually be great in it I'm serious I mean I could do it I guess and I probably would do it if they asked but I think my problem with it isn't the play itself but the guy who's in it now What's his name Anyway it doesn't matter I just think he's not really acting so much as just smoldering or something up there and I'm like buddy you can't just play every scene sexy I mean that's not an active choice,What issue does the narrator have with the actor currently in the play?,A. She thinks he's too active,B. She believes he's too serious,C. She thinks he's smoldering too much,D. She has no issue with him,C. She thinks he's smoldering too much,yes,11.45625,,,,,,,,,,,,,0,25,25,25,0,0,0,0,,,,,,,,,,,,,,,,,,,,,,,,,,,,,,,,,,,,,,,,,,,,,,,,,,,,,,,,,,,,,,,,,,,,,,,,,,,,,,,,,,,,,,,,,,p_4,001,2024-05-04_13h50.52.415,speech_rate,2023.2.3,None,2024-05-04 13h51.04.887127 -0700,
,Someday_33_condition-3x.wav,Someday__Someday__Maybe__Unabridged___File_018_of_116_2.wav,Well I wouldn't say I'd be amazing in it although thanks for saying so I think I'd just be okay in it I mean it is sort of right in my wheelhouse but I think you'd actually be great in it I'm serious I mean I could do it I guess and I probably would do it if they asked but I think my problem with it isn't the play itself but the guy who's in it now What's his name Anyway it doesn't matter I just think he's not really acting so much as just smoldering or something up there and I'm like buddy you can't just play every scene sexy I mean that's not an active choice,What issue does the narrator have with the actor currently in the play?,A. She thinks he's too active,B. She believes he's too serious,C. She thinks he's smoldering too much,D. She has no issue with him,C. She thinks he's smoldering too much,yes,11.45625,,,,,,,,,,,,,0,25,25,25,,,,,,,,,,,,,,,,,,,,,,,,,,,,,,,,,,,,,,,,,,,,,,,,,,,,,1181.1344437919997,1189.9768638749993,0,,,1,8.832308041999568,8.832311166999716,0,,,0,,,,,,,,,,,,,,,,,,,,,,,,,,,,,,p_4,001,2024-05-04_13h50.52.415,speech_rate,2023.2.3,None,2024-05-04 13h51.04.887127 -0700,
,Someday_106_condition-3x.wav,Someday__Someday__Maybe__Unabridged___File_047_of_116_2.wav,Someone goes for him Someone does everything for him And he seems miserable He reads everything they write about him in the magazines and he gets so upset When work is over and his wife is back in LA he doesn't seem to know what to do with himself And he goes out with the guys from the crew who aren't even really his friends And they get drunk and it ends up on page six I keep thinking someone should be helping him in a different way or there should be some sort of manual for him because he just doesn't seem to be enjoying any of it,How does the person the narrator works for behave when he's not working?,A. He enjoys his free time and socializes with friends,B. He reads about himself in magazines and gets upset,C. He spends time with his wife in LA,D. He writes a manual for himself to navigate success,B. He reads about himself in magazines and gets upset,yes,10.725,,,,,,,,,,,,,0,26,26,26,0,0,0,0,0,0,0,0,1208.2006469169992,,,,,,,,,,,,,,,1192.9010277090001,1192.9166272506666,1192.9164540000002,1203.6339477090005,1203.6421311249997,1203.65321975,1203.9089785840006,1203.9089785840006,1205.334932624999,1207.2076594589998,2.5166666666666666,2.9290653750013007,1,[1.8822810839992599],[1.8822835840001062],,,,,,,1208.1725629169996,1208.2006469169992,1208.2006469169992,1238.175314917,She's talking about another individual she knows who doesnt seem to be enjoying it.,0,,,,,,,,,,,,,,,,,,,,,,,,1189.9774065000001,1189.9846937919992,1189.9846937919992,1189.9846937919992,1192.9008341669996,1,[2.921761166999204],[2.9217637089986965],1207.2081533340006,1207.2167119170008,1208.1717885840008,1,[0.9629970000005414],[0.963004125000225],,,,,,,p_4,001,2024-05-04_13h50.52.415,speech_rate,2023.2.3,None,2024-05-04 13h51.04.887127 -0700,
,Someday_106_condition-3x.wav,Someday__Someday__Maybe__Unabridged___File_047_of_116_2.wav,Someone goes for him Someone does everything for him And he seems miserable He reads everything they write about him in the magazines and he gets so upset When work is over and his wife is back in LA he doesn't seem to know what to do with himself And he goes out with the guys from the crew who aren't even really his friends And they get drunk and it ends up on page six I keep thinking someone should be helping him in a different way or there should be some sort of manual for him because he just doesn't seem to be enjoying any of it,How does the person the narrator works for behave when he's not working?,A. He enjoys his free time and socializes with friends,B. He reads about himself in magazines and gets upset,C. He spends time with his wife in LA,D. He writes a manual for himself to navigate success,B. He reads about himself in magazines and gets upset,yes,10.725,,,,,,,,,,,,,0,26,26,26,0,0,0,0,,,,,,,,,,,,,,,,,,,,,,,,,,,,,,,,,,,,,,,,,,,,,,,,,,,,,,,,,,,,,,,,,,,,,,,,,,,,,,,,,,,,,,,,,,p_4,001,2024-05-04_13h50.52.415,speech_rate,2023.2.3,None,2024-05-04 13h51.04.887127 -0700,
,Someday_106_condition-3x.wav,Someday__Someday__Maybe__Unabridged___File_047_of_116_2.wav,Someone goes for him Someone does everything for him And he seems miserable He reads everything they write about him in the magazines and he gets so upset When work is over and his wife is back in LA he doesn't seem to know what to do with himself And he goes out with the guys from the crew who aren't even really his friends And they get drunk and it ends up on page six I keep thinking someone should be helping him in a different way or there should be some sort of manual for him because he just doesn't seem to be enjoying any of it,How does the person the narrator works for behave when he's not working?,A. He enjoys his free time and socializes with friends,B. He reads about himself in magazines and gets upset,C. He spends time with his wife in LA,D. He writes a manual for himself to navigate success,B. He reads about himself in magazines and gets upset,yes,10.725,,,,,,,,,,,,,0,26,26,26,,,,,,,,,,,,,,,,,,,,,,,,,,,,,,,,,,,,,,,,,,,,,,,,,,,,,1238.175660375,1247.8891245840005,0,,,1,9.701206707999518,9.70120945799863,0,,,0,,,,,,,,,,,,,,,,,,,,,,,,,,,,,,p_4,001,2024-05-04_13h50.52.415,speech_rate,2023.2.3,None,2024-05-04 13h51.04.887127 -0700,
,Someday_84_condition-5x.wav,Someday__Someday__Maybe__Unabridged___File_038_of_116_0.wav,The offices of absolute artists are on the 32nd floor of a sleek glass high rise building on 56th Street near Fifth Avenue in the middle of countless stores and apartments I could never afford I come to this part of town only once in a while to go to Central Park although I like our park in Brooklyn just as much The streets are wider here and the buildings are much taller than downtown and lots of people are wearing suits and carrying briefcases and crossing the street dangerously in the middle of the block,Where is Absolute Artists' office located?,A. In Brooklyn,B. On Fifth Avenue,C. By Central Park,D. On the 32nd floor of a high-rise,D. On the 32nd floor of a high-rise,no,5.852,,,,,,,,,,,,,0,27,27,27,,,,,,,,,1247.9027032089998,,,,,,,,,,,,,,,1248.4962121249991,1248.5098019166674,1248.5081144590004,1254.3706833340002,1254.3739352499997,1254.385165833999,1254.6517099169996,1254.6517099169996,1255.5590837500004,1256.3217113339997,1,1.1478297499998007,1,[0.7719509589987865],[0.771953333998681],,,,,,,,,,,,,,,1256.3221399590002,1264.621931833999,1,8.291312875000585,8.291315459000543,0,,,0,,,0,,,,,,,,,,1247.8896791669995,1247.9027032089998,1247.9027032089998,1247.9027032089998,1248.4959387920007,1,[0.6034892080006102],[0.6035029579998081],,,,,,,,,,,,,p_4,001,2024-05-04_13h50.52.415,speech_rate,2023.2.3,None,2024-05-04 13h51.04.887127 -0700,
,Someday_47_condition.wav,Someday__Someday__Maybe__Unabridged___File_024_of_116_3.wav,I almost feel as though I belong in this crowd tonight or that it's possible I could someday Absolute agency You're kidding me Look at you Dina hugs me hard when I tell her the news her perfectly polished red nails squeezing my arms Rockstar And another agency called Sparks Sparks That's Barney Sparks It's just him He's the whole office He's great He's been around a long time Dina holds her wine glass up already half empty and smiles,What does Dina do when the narrator tells her the news?,A. She hugs her,B. She shakes her hand,C. She kisses her,D. She cheers for her,A. She hugs her,no,30.01,,,,,,,,,,,,,0,28,28,28,,,,,,,,,1264.628137833999,,,,,,,,,,,,,,,1265.3048810420005,1265.3375623753332,1265.336076042,1295.3395810839993,1295.3490345419996,1295.370430208999,1295.5762158750003,1295.5762158750003,1297.9217123750004,1298.8690477500004,9.975,2.523375667000437,1,[0.9598687919988151],[0.9598709579986462],,,,,,,,,,,,,,,1298.8694915840006,1302.0721697499994,1,3.194870291999905,3.194873208998615,0,,,0,,,0,,,,,,,,,,1264.6224622089994,1264.628137833999,1264.628137833999,1264.628137833999,1265.3046977089998,1,[0.6817871250004828],[0.6817897090004408],,,,,,,,,,,,,p_4,001,2024-05-04_13h50.52.415,speech_rate,2023.2.3,None,2024-05-04 13h51.04.887127 -0700,
,Someday_119_condition-5x.wav,Someday__Someday__Maybe__Unabridged___File_053_of_116_1.wav,But when did you start doing this I didn't see any of it in the fridge Yeah no that's the best part You don't have to refrigerate it It comes in a box It's freeze dried in a package and you just take it out and soak it You soak it It sounds weird I know but it's actually very convenient because you can take it anywhere you know on the go Why can't you just eat actual healthy food the kind that doesn't require soaking Well obviously because I can't be trusted to control myself This teaches you portion control,Why does the narrator prefer soaked food?,A. Because it helps with portion control,B. Because it tastes good,C. Becauseit is cheap,D. Because the friend likes it,A. Because it helps with portion control,no,5.738,,,,,,,,,,,,,0,29,29,29,,,,,,,,,1302.0788279589997,,,,,,,,,,,,,,,1304.964151667,1304.9794307916675,1304.9753665000007,1310.7138513339996,1310.7190164170006,1310.730229334,1310.9291722500002,1310.9291722500002,1312.3455382089996,1313.0186980840008,1,1.59075062500051,1,[0.6823783330000879],[0.6823807079999824],,,,,,,,,,,,,,,1313.019121792,1315.8977183339994,1,2.870447208000769,2.8704493750010442,0,,,0,,,0,,,,,,,,,,1302.072639209,1302.0788279589997,1302.0788279589997,1302.0788279589997,1304.9636763340004,1,[2.889538999999786],[2.8895416669984115],,,,,,,,,,,,,p_4,001,2024-05-04_13h50.52.415,speech_rate,2023.2.3,None,2024-05-04 13h51.04.887127 -0700,
,Someday_64_condition-4x.wav,Someday__Someday__Maybe__Unabridged___File_031_of_116_0.wav,The traffic isn't too bad yet and the sun is still low in the sky I pass a few trucks parked on 72nd flanked by orange cones and signs stapled to the electrical poles that say no parking permit to film This must be the shoot my shoot A stocky girl is standing on the corner by the trucks wearing a giant fur hat with ear flaps and speaking into a walkie talkie Hi excuse me I say What is this for Mayonnaise commercial she says gruffly I'm in the wrong place,What is happening on 72nd Street?,A. A traffic jam,B. A film shoot,C. A parade,D. A protest,B. A film shoot,no,7.2025,,,,,,,,,,,,,0,30,30,30,,,,,,,,,1315.905909084,,,,,,,,,,,,,,,1318.4463893749999,1318.4623409166672,1318.4594137500007,1325.6560408749992,1325.666190209,1325.6774311669997,1325.8813396669993,1325.8813396669993,1328.9633710840008,1329.6474271250008,1.0083333333333335,3.2610768750000716,1,[0.6932572499990783],[0.69325949999984],,,,,,,,,,,,,,,1329.6478515840008,1333.9987898340005,1,4.3433095420004975,4.343311667000307,0,,,0,,,0,,,,,,,,,,1315.8981866670001,1315.905909084,1315.905909084,1315.905909084,1318.4461884169996,1,[2.546647083001517],[2.5466496250010096],,,,,,,,,,,,,p_4,001,2024-05-04_13h50.52.415,speech_rate,2023.2.3,None,2024-05-04 13h51.04.887127 -0700,
,Someday_74_condition-2x.wav,Someday__Someday__Maybe__Unabridged___File_035_of_116_2.wav,Barney wears a light blue sport coat and has thick white hair cropped very close to his head The whole place smells like cigar smoke and dust but there's something comforting about it I'm afraid my nervousness is obvious especially when I discover that the only way to sit in the one huge armchair opposite his desk is to sink into it and be swallowed I fight the chair for a minute trying to perch daintily on the edge and then give up and sit back which at least might make me look relaxed Francis Banks Barney Bellows,What is Barney Sparks wearing when the main character meets him?,A. A black tuxedo,B. A light blue sport coat,C. A red sweater,D. A white lab coat,B. A light blue sport coat,no,14.87,,,,,,,,,,,,,0,31,31,31,,,,,,,,,1334.0069846250008,,,,,,,,,,,,,,,1337.8081105,1337.8240047916663,1337.8266009170002,1352.6929562090008,1352.696547042,1352.707778083999,1352.9119355420007,1352.9119355420007,1355.4308201250005,1356.1325355000008,4.025,2.6988831250000658,1,[0.7108097500004078],[0.7108134999998583],,,,,,,,,,,,,,,1356.1329894169994,1358.1370737500001,0,,,1,1.9962245830010943,1.9962274999998044,0,,,0,,,,,,,,,,1333.9992352089994,1334.0069846250008,1334.0069846250008,1334.0069846250008,1337.8079222920005,1,[3.807255334000729],[3.8072579170002427],,,,,,,,,,,,,p_4,001,2024-05-04_13h50.52.415,speech_rate,2023.2.3,None,2024-05-04 13h51.04.887127 -0700,
,Someday_83_condition-5x.wav,Someday__Someday__Maybe__Unabridged___File_037_of_116_4.wav,I sound odd to myself as if I'm playing the part of a professional actress who has meetings all the time and is sort of blasé about them I loved Barney Sparks I want to tell Dan but I'm suspicious of anything that seems too easy I'm not sure why I can't say that now and not sure why I didn't jump at the chance to say yes in Barney's office It feels like I'm an actor in an Italian movie from the 60s saying the placeholder lines into the camera waiting for the real ones that come later,What is the narrator suspicious of?,A. Things that take too long,B. Things that are hard to do,C. Things that seem controversial,D. Things that seem too easy,D. Things that seem too easy,no,5.806,,,,,,,,,,,,,0,32,32,32,,,,,,,,,1358.1442990840005,,,,,,,,,,,,,,,1359.777837959,1359.7928945416663,1359.7887207090007,1365.5938597090008,1365.6126197089998,1365.6238219589995,1365.8305576250004,1365.8305576250004,1367.8750965420004,1368.4056216249992,1,2.2233037919995695,1,[0.5411737499998708],[0.5411758749996807],,,,,,,,,,,,,,,1368.4060743749997,1373.3951749169992,0,,,0,,,1,4.9810358340000676,4.981038916999751,0,,,,,,,,,,1358.1376489590002,1358.1442990840005,1358.1442990840005,1358.1442990840005,1359.7775085419999,1,[1.6380293749989505],[1.6380324159999873],,,,,,,,,,,,,p_4,001,2024-05-04_13h50.52.415,speech_rate,2023.2.3,None,2024-05-04 13h51.04.887127 -0700,
,Someday_15_condition-2x.wav,Someday__Someday__Maybe__Unabridged___File_009_of_116_3.wav,Whenever Jane talks about Russell Blakely all I can picture is that line everybody was quoting from his last movie Steel Entrapment where he calls out to Cordelia Biscayne honey I'm home while hanging by one hand from the landing gear of a helicopter bare chested Today's special is from the set of Kill Time an assortment of bagels that were only out on the craft service table for about three hours but are not sadly accompanied by cream cheese and that Chinese rice thing that Dan likes which I don't think was too aggressively sneezed upon,What does Russell Blakely call out to Cordelia Biscayne in the movie Steel Entrapment?,A. "Sweetie I'm out",B. "Baby I'm back",C. "Darling I've arrived",D. "Honey I'm home",D. "Honey I'm home",yes,14.675,,,,,,,,,,,,,0,33,33,33,0,0,0,0,0,0,0,0,1395.6278872090006,,,,,,,,,,,,,,,1375.0948572920006,1375.1103357506674,1375.1124597920007,1389.794940624999,1389.7968644169996,1389.8186675840007,1390.0317705420002,1390.0317705420002,1393.795881,1394.518597541999,3.0083333333333333,3.952390541000568,1,[0.7320927500004473],[0.73209499999939],,,,,,,1395.6140549169995,1395.6278872090006,1395.6278872090006,1420.2308747919997,"The narrator talks about a specific actor she knows, bagles and a rice dish that was sneezed on. ",1,[24.613652750000256],[24.613656333000108],,,,,,,,,,,,,,,,,,,,,,1373.3957604589996,1373.4018407090007,1373.4018407090007,1373.4018407090007,1375.0946185840003,1,[1.6983720420012105],[1.6983747500016761],1394.5191174169995,1394.5273899999993,1395.6133440419999,1,[1.0937573749997682],[1.0937599999997474],,,,,,,p_4,001,2024-05-04_13h50.52.415,speech_rate,2023.2.3,None,2024-05-04 13h51.04.887127 -0700,
,Someday_15_condition-2x.wav,Someday__Someday__Maybe__Unabridged___File_009_of_116_3.wav,Whenever Jane talks about Russell Blakely all I can picture is that line everybody was quoting from his last movie Steel Entrapment where he calls out to Cordelia Biscayne honey I'm home while hanging by one hand from the landing gear of a helicopter bare chested Today's special is from the set of Kill Time an assortment of bagels that were only out on the craft service table for about three hours but are not sadly accompanied by cream cheese and that Chinese rice thing that Dan likes which I don't think was too aggressively sneezed upon,What does Russell Blakely call out to Cordelia Biscayne in the movie Steel Entrapment?,A. "Sweetie I'm out",B. "Baby I'm back",C. "Darling I've arrived",D. "Honey I'm home",D. "Honey I'm home",yes,14.675,,,,,,,,,,,,,0,33,33,33,0,0,0,0,,,,,,,,,,,,,,,,,,,,,,,,,,,,,,,,,,,,,,,,,,,,,,,,,,,,,,,,,,,,,,,,,,,,,,,,,,,,,,,,,,,,,,,,,,p_4,001,2024-05-04_13h50.52.415,speech_rate,2023.2.3,None,2024-05-04 13h51.04.887127 -0700,
,Someday_15_condition-2x.wav,Someday__Someday__Maybe__Unabridged___File_009_of_116_3.wav,Whenever Jane talks about Russell Blakely all I can picture is that line everybody was quoting from his last movie Steel Entrapment where he calls out to Cordelia Biscayne honey I'm home while hanging by one hand from the landing gear of a helicopter bare chested Today's special is from the set of Kill Time an assortment of bagels that were only out on the craft service table for about three hours but are not sadly accompanied by cream cheese and that Chinese rice thing that Dan likes which I don't think was too aggressively sneezed upon,What does Russell Blakely call out to Cordelia Biscayne in the movie Steel Entrapment?,A. "Sweetie I'm out",B. "Baby I'm back",C. "Darling I've arrived",D. "Honey I'm home",D. "Honey I'm home",yes,14.675,,,,,,,,,,,,,0,33,33,33,,,,,,,,,,,,,,,,,,,,,,,,,,,,,,,,,,,,,,,,,,,,,,,,,,,,,1420.2312974590004,1425.5463823749997,0,,,0,,,0,,,1,5.305612541998926,5.305615082999793,,,,,,,,,,,,,,,,,,,,,,,,,,,,p_4,001,2024-05-04_13h50.52.415,speech_rate,2023.2.3,None,2024-05-04 13h51.04.887127 -0700,
,Someday_53_condition-2x.wav,Someday__Someday__Maybe__Unabridged___File_026_of_116_1.wav,It can be dangerous to take the subway all the way to Brooklyn this late I should take a cab she's right but I'm too embarrassed to tell her I only have about 8 in cash on me and probably less than 20 in my bank account so I can't even go to a cash machine I'll get tips and a tiny paycheck at my shift at the club tomorrow night which I'll take directly to the check cashing place on the skeevy part of Fifth Avenue in Brooklyn which will charge me almost a quarter of the check to turn it into immediate cash but I can't wait the five to seven days for the bank to clear it or the electric bill will bounce,Why is the narrator embarrassed to take a cab?,A. She doesn't have enough cash,B. She doesn't want to spend money,C. She prefers the subway,D. She doesn't know how to hail a cab,A. She doesn't have enough cash,no,14.74,,,,,,,,,,,,,0,34,34,34,,,,,,,,,1425.5529265000005,,,,,,,,,,,,,,,1426.1643488339996,1426.1965953753338,1426.1868282920004,1440.9312337089996,1440.9384633749996,1440.9496658339995,1441.204487375,1441.204487375,1446.1361997919994,1447.0437772500009,4.025,5.162330875000407,1,[0.9166853330007143],[0.9166876250001224],,,,,,,,,,,,,,,1447.04422075,1454.7349663339992,1,7.682207750000089,7.682210417000533,0,,,0,,,0,,,,,,,,,,1425.5468505000008,1425.5529265000005,1425.5529265000005,1425.5529265000005,1426.1641107920004,1,[0.6158287500002189],[0.6158313329997327],,,,,,,,,,,,,p_4,001,2024-05-04_13h50.52.415,speech_rate,2023.2.3,None,2024-05-04 13h51.04.887127 -0700,
