index,wav_file,old_name,segment_text,question,C1,C2,C3,C4,C_correct,summary,duration,training.thisRepN,training.thisTrialN,training.thisN,training.thisIndex,sum_true.thisRepN,sum_true.thisTrialN,sum_true.thisN,sum_true.thisIndex,dummy_loop.thisRepN,dummy_loop.thisTrialN,dummy_loop.thisN,dummy_loop.thisIndex,experiment.thisRepN,experiment.thisTrialN,experiment.thisN,experiment.thisIndex,sum_true_exp.thisRepN,sum_true_exp.thisTrialN,sum_true_exp.thisN,sum_true_exp.thisIndex,dummy_loop_exp.thisRepN,dummy_loop_exp.thisTrialN,dummy_loop_exp.thisN,dummy_loop_exp.thisIndex,thisRow.t,notes,Instructions.started,Instructions.stopped,Start_Segment_Train.started,Play_train.started,Trial_counter_train.started,text_5.started,Start_Segment_Train.stopped,Play_train.numClicks,Play_train.timesOn,Play_train.timesOff,Training_Segment.started,Experimen_audio.started,polygon.started,polygon.stopped,Training_Segment.stopped,Rating.started,slider.started,text_3.started,button_2.started,Rating.stopped,slider.response,slider.rt,button_2.numClicks,button_2.timesOn,button_2.timesOff,Start_Summary.started,text_2.started,Start_Summary.stopped,summary_button.numClicks,summary_button.timesOn,summary_button.timesOff,skip_button.numClicks,skip_button.timesOn,skip_button.timesOff,Summary.started,textbox.started,Summary.stopped,textbox.text,Multiple_Choice_2.started,Multiple_Choice_2.stopped,A.numClicks,A.timesOn,A.timesOff,B.numClicks,B.timesOn,B.timesOff,C.numClicks,C.timesOn,C.timesOff,D.numClicks,D.timesOn,D.timesOff,textbox.stopped,Start_Exp.started,Start_exp.started,Start.started,Start_Exp.stopped,Start.numClicks,Start.timesOn,Start.timesOff,Start_Segment.started,Play.started,Trial_counter.started,text_6.started,Start_Segment.stopped,Play.numClicks,Play.timesOn,Play.timesOff,Start_Sum_Exp.started,text_4.started,summary_button_exp.started,skip_button_exp.started,Start_Sum_Exp.stopped,summary_button_exp.numClicks,summary_button_exp.timesOn,summary_button_exp.timesOff,skip_button_exp.numClicks,skip_button_exp.timesOn,skip_button_exp.timesOff,participant,session,date,expName,psychopyVersion,frameRate,expStart,
1,Someday_trial_condition.wav,Someday__Someday__Maybe__Unabridged___File_069_of_116_3.wav,It's a gut feeling You can't nickname him He's a real person not a joke person You don't have to tell me Only a real person would try to shake hands with my best friend's foot Jane you're not explaining it right It was very romantic And thankfully our steaming bowl of bright yellow melted cheese with flecks of green chilies arrives Listen she says dipping a chip into the creamy depths You're the one with the brand new personality I'm still the same old Jane,"What does the narrator have, according to Jane?",A) A new recipe for dipping sauce,B) A new personality,C) A new restaurant suggestion,D) A new pair of shoes,B) A new personality,yes,30,0,0,0,0,0,0,0,0,0,0,0,0,,,,,,,,,,,,,74.56454329200005,,0.011559083000065584,33.465362124999956,33.47389300000009,33.49013095800001,33.49013095800001,33.49013095800001,35.580984167,1,[2.0988763330001348],[2.0988787920000505],35.581335667000076,35.63062812499997,35.62665191700012,65.640060833,65.60999850000007,65.63229737500001,65.85423637500003,65.85423637500003,67.64418241700014,68.53716187500004,10,1.9865837079998983,1,[0.9028875839999273],[0.9028902919999382],68.53921670800014,68.54660783300005,74.5343599580001,1,[5.993903917000125],[5.993906500000094],0,,,74.53523758300003,74.56454329200005,89.54352549999999,friends dip I'm still the same old Jane new personality ,,,,,,,,,,,,,,,,,,,,,,,,,,,,,,,,,,,,,,,,,,p_5,001,2024-03-14_13h28.19.914,speech_rate,2023.2.3,None,2024-03-14 13h33.41.686296 -0700,
1,Someday_trial_condition.wav,Someday__Someday__Maybe__Unabridged___File_069_of_116_3.wav,It's a gut feeling You can't nickname him He's a real person not a joke person You don't have to tell me Only a real person would try to shake hands with my best friend's foot Jane you're not explaining it right It was very romantic And thankfully our steaming bowl of bright yellow melted cheese with flecks of green chilies arrives Listen she says dipping a chip into the creamy depths You're the one with the brand new personality I'm still the same old Jane,"What does the narrator have, according to Jane?",A) A new recipe for dipping sauce,B) A new personality,C) A new restaurant suggestion,D) A new pair of shoes,B) A new personality,yes,30,0,0,0,0,0,0,0,0,,,,,,,,,,,,,,,,,,,,,,,,,,,,,,,,,,,,,,,,,,,,,,,,,,,,,,,,,,,,,,,,,,,,,,,,,,,,,,,,,,,,,,,,,,,,,,,,,,p_5,001,2024-03-14_13h28.19.914,speech_rate,2023.2.3,None,2024-03-14 13h33.41.686296 -0700,
1,Someday_trial_condition.wav,Someday__Someday__Maybe__Unabridged___File_069_of_116_3.wav,It's a gut feeling You can't nickname him He's a real person not a joke person You don't have to tell me Only a real person would try to shake hands with my best friend's foot Jane you're not explaining it right It was very romantic And thankfully our steaming bowl of bright yellow melted cheese with flecks of green chilies arrives Listen she says dipping a chip into the creamy depths You're the one with the brand new personality I'm still the same old Jane,"What does the narrator have, according to Jane?",A) A new recipe for dipping sauce,B) A new personality,C) A new restaurant suggestion,D) A new pair of shoes,B) A new personality,yes,30,0,0,0,0,,,,,,,,,,,,,,,,,,,,,,,,,,,,,,,,,,,,,,,,,,,,,,,,,,,,,,,,,,,,,89.54376633300012,94.81761195800004,0,,,1,5.255602957999827,5.255605916999912,0,,,0,,,,,,,,,,,,,,,,,,,,,,,,,,,,,,p_5,001,2024-03-14_13h28.19.914,speech_rate,2023.2.3,None,2024-03-14 13h33.41.686296 -0700,
2,Someday_trial_condition-4x.wav,Someday__Someday__Maybe__Unabridged___File_103_of_116_1.wav,Isn't halfway where two people usually meet Well in general maybe But tonight this is sort of a big deal for me It's my night I'm not sure you you don't think I get it Well no I mean how could you I'm having trouble making sense of this conversation James is speaking with authority but there's something wrong Something feels so wrong somehow I don't care about waving and smiling and having my picture taken with him,"How does James speak, according to the narrator?",A) With compassion,B) With grief,C) With hesitation,D) With authority,D) With authority,yes,7.5,0,1,1,1,0,0,0,0,0,0,0,0,,,,,,,,,,,,,109.76239504199998,,,,94.81832833299995,94.82588141700012,94.82588141700012,94.82588141700012,98.55289354199999,1,[3.7313858340000934],[3.7313882920000196],98.55309566699998,98.56910691666668,98.56885762499996,106.07979916700015,106.06244941700015,106.07365941700004,106.3059820420001,106.3059820420001,107.99523304200011,108.81808675000002,1,1.8969540420000612,1,[0.8321530000000621],[0.8321550840000782],108.8185846670001,108.82693800000015,109.75227220800002,1,[0.9329748750001272],[0.9329775000001064],0,,,109.75299199999995,109.76239504199998,124.74672841699999,How could you? something feels so wrong. conversation. having sex?,,,,,,,,,,,,,,,124.76700779199996,,,,,,,,,,,,,,,,,,,,,,,,,,,p_5,001,2024-03-14_13h28.19.914,speech_rate,2023.2.3,None,2024-03-14 13h33.41.686296 -0700,
2,Someday_trial_condition-4x.wav,Someday__Someday__Maybe__Unabridged___File_103_of_116_1.wav,Isn't halfway where two people usually meet Well in general maybe But tonight this is sort of a big deal for me It's my night I'm not sure you you don't think I get it Well no I mean how could you I'm having trouble making sense of this conversation James is speaking with authority but there's something wrong Something feels so wrong somehow I don't care about waving and smiling and having my picture taken with him,"How does James speak, according to the narrator?",A) With compassion,B) With grief,C) With hesitation,D) With authority,D) With authority,yes,7.5,0,1,1,1,0,0,0,0,,,,,,,,,,,,,,,,,,,,,,,,,,,,,,,,,,,,,,,,,,,,,,,,,,,,,,,,,,,,,,,,,,,,,,,,,,,,,,,,,,,,,,,,,,,,,,,,,,p_5,001,2024-03-14_13h28.19.914,speech_rate,2023.2.3,None,2024-03-14 13h33.41.686296 -0700,
2,Someday_trial_condition-4x.wav,Someday__Someday__Maybe__Unabridged___File_103_of_116_1.wav,Isn't halfway where two people usually meet Well in general maybe But tonight this is sort of a big deal for me It's my night I'm not sure you you don't think I get it Well no I mean how could you I'm having trouble making sense of this conversation James is speaking with authority but there's something wrong Something feels so wrong somehow I don't care about waving and smiling and having my picture taken with him,"How does James speak, according to the narrator?",A) With compassion,B) With grief,C) With hesitation,D) With authority,D) With authority,yes,7.5,0,1,1,1,,,,,,,,,,,,,,,,,,,,,,,,,,,,,,,,,,,,,,,,,,,,,,,,,,,,,,,,,,,,,124.74705474999996,136.54030812500014,0,,,0,,,0,,,1,11.78344012499997,11.783442874999992,,,,,,,,,,,,,,,,,,,,,,,,,,,,p_5,001,2024-03-14_13h28.19.914,speech_rate,2023.2.3,None,2024-03-14 13h33.41.686296 -0700,
,Someday_3_condition-3x.wav,Someday__Someday__Maybe__Unabridged___File_005_of_116_1.wav,I suppose I did but I'm still too groggy to focus on the details Normally I would have asked our other roommate my best friend Jane but she's been working nights as a PA on that new Russell Blakely movie Since Dan moved into the bedroom downstairs a few months ago I haven't noticed much about him except how unnecessarily tall he is how many hours he spends writing at the computer and the intense fear he seems to have about coming upon either of us when we're not decent Dan come in You're decent,What is the main reason the narrator doesn't ask their roommate Jane for help?,A. Jane is too busy working,B. Jane is not a good friend,C. The narrator doesn't trust Jane,D. The narrator prefers not to tak to anyone,A. Jane is too busy working,yes,11.12625,,,,,,,,,,,,,0,0,0,0,0,0,0,0,0,0,0,0,218.08491212500007,,,,,,,,,,,,201.16746241700002,201.18320862466683,201.18778825000004,212.30614250000008,212.31809554200004,212.32927091700003,212.56496545799996,212.56496545799996,215.68335433300012,216.67873295799996,5.991666666666666,3.3139084580000144,1,[1.0207167500000196],[1.020718959000078],,,,,,,,,,218.0754998330001,218.08491212500007,233.06900137499997,"Dan come in, you're decent? Roommate. Not decent.",,,,,,,,,,,,,,,233.09107670799995,136.54081604199996,136.5482313750001,136.5482313750001,198.335272583,1,[61.79284420900012],[61.792854959000124],198.479047542,198.49022620799997,198.49022620799997,198.49022620799997,201.1670422080001,1,[2.684114832999967],[2.684117457999946],216.67947045799997,216.686266917,216.686266917,216.686266917,218.07471525000005,1,[1.3940460830001484],[1.3940488750001805],0,,,p_5,001,2024-03-14_13h28.19.914,speech_rate,2023.2.3,None,2024-03-14 13h33.41.686296 -0700,
,Someday_3_condition-3x.wav,Someday__Someday__Maybe__Unabridged___File_005_of_116_1.wav,I suppose I did but I'm still too groggy to focus on the details Normally I would have asked our other roommate my best friend Jane but she's been working nights as a PA on that new Russell Blakely movie Since Dan moved into the bedroom downstairs a few months ago I haven't noticed much about him except how unnecessarily tall he is how many hours he spends writing at the computer and the intense fear he seems to have about coming upon either of us when we're not decent Dan come in You're decent,What is the main reason the narrator doesn't ask their roommate Jane for help?,A. Jane is too busy working,B. Jane is not a good friend,C. The narrator doesn't trust Jane,D. The narrator prefers not to tak to anyone,A. Jane is too busy working,yes,11.12625,,,,,,,,,,,,,0,0,0,0,0,0,0,0,,,,,,,,,,,,,,,,,,,,,,,,,,,,,,,,,,,,,,,,,,,,,,,,,,,,,,,,,,,,,,,,,,,,,,,,,,,,,,,,,,,,,,p_5,001,2024-03-14_13h28.19.914,speech_rate,2023.2.3,None,2024-03-14 13h33.41.686296 -0700,
,Someday_3_condition-3x.wav,Someday__Someday__Maybe__Unabridged___File_005_of_116_1.wav,I suppose I did but I'm still too groggy to focus on the details Normally I would have asked our other roommate my best friend Jane but she's been working nights as a PA on that new Russell Blakely movie Since Dan moved into the bedroom downstairs a few months ago I haven't noticed much about him except how unnecessarily tall he is how many hours he spends writing at the computer and the intense fear he seems to have about coming upon either of us when we're not decent Dan come in You're decent,What is the main reason the narrator doesn't ask their roommate Jane for help?,A. Jane is too busy working,B. Jane is not a good friend,C. The narrator doesn't trust Jane,D. The narrator prefers not to tak to anyone,A. Jane is too busy working,yes,11.12625,,,,,,,,,,,,,0,0,0,0,,,,,,,,,,,,,,,,,,,,,,,,,,,,,,,,,,,,,,,,,,,,,,,,,233.069237917,241.07754225000008,0,,,1,7.996173292000094,7.9961761669999305,0,,,0,,,,,,,,,,,,,,,,,,,,,,,,,,,,,,p_5,001,2024-03-14_13h28.19.914,speech_rate,2023.2.3,None,2024-03-14 13h33.41.686296 -0700,
,Someday_34_condition-2x.wav,Someday__Someday__Maybe__Unabridged___File_019_of_116_2.wav,Who falls on stage wearing nothing but a bathrobe Why Why Why Why The monologue was going so well too or at least I think it was I'm not sure of anything now The audience seemed to be laughing in all the right places That's actually what threw me I think Their laughter threw my whole rhythm off having to wait until it died down before I could continue But still it was all okay until I tried to sit down The stage was just so dark and the lights were in my eyes,What disrupted the narrator's monologue performance?,A. The audience's laughter,B. The noise from the backstage,C. The unexpected props,D. The malfunctioning lights,A. The audience's laughter,no,15.085,,,,,,,,,,,,,0,1,1,1,,,,,,,,,241.10116104200006,,,,,,,,,,,,243.04077262500005,243.07309841633338,243.06514708300006,258.14233141700015,258.1590362500001,258.180486083,258.41892870800007,258.41892870800007,260.8748303750001,262.04992104200005,7.908333333333333,3.3123059999998077,1,[1.1841088749999926],[1.1841115830000035],,,,,,,,,,,,,,262.05038420799997,270.8283892500001,0,,,0,,,0,,,1,8.768844499999886,8.76884733299994,,,,,,,,,241.07863891700003,241.10116104200006,241.10116104200006,241.10116104200006,243.04057558299996,1,[1.9605240830001094],[1.9605267500000991],,,,,,,,,,,,p_5,001,2024-03-14_13h28.19.914,speech_rate,2023.2.3,None,2024-03-14 13h33.41.686296 -0700,
,Someday_110_condition-3-5x.wav,Someday__Someday__Maybe__Unabridged___File_048_of_116_3.wav,But still the dry cleaners own you You're at their mercy Clothes that have to be dry cleaned look down on you Is it the clothes who are to blame or the dry cleaning professionals themselves Chicken or the egg my friend This new dry cleaning conspiracy theory reminds me of your fear of ironing This is nothing like my fear of ironing Although ironing is another secret society that doesn't want you to know what's up Do you know anyone who can tell you why the ironing board is shaped that way How does it help me that it's the size of a surfboard,What is the dry cleaning conspiracy theory being compared to?,A. A fear of ironing,B. The shape of an ironing board,C. A secret society,D. A surfboard,A. A fear of ironing,yes,8.875,,,,,,,,,,,,,0,2,2,2,0,0,0,0,0,0,0,0,285.32264862500006,,,,,,,,,,,,272.7575522500001,272.77122004166677,272.7730301670001,281.6437806250001,281.648438125,281.67064466700003,281.87075695800013,281.87075695800013,283.28953245799994,283.8153649170001,1.0750000000000002,1.5916550419999567,1,[0.535417667000047],[0.535420583000132],,,,,,,,,,285.3133451670001,285.32264862500006,300.30629445800014,learning and dry cleaning. you want me to tell you? learning and dry cleaning!,,,,,,,,,,,,,,,300.32491537500005,,,,,,,,270.828849708,270.83595000000014,270.83595000000014,270.83595000000014,272.756768792,1,[1.9267240829999537],[1.9267404999998234],283.8158725830001,283.82181037500004,283.82181037500004,283.82181037500004,285.3124840830001,1,[1.4958903750000445],[1.4958928340001876],0,,,p_5,001,2024-03-14_13h28.19.914,speech_rate,2023.2.3,None,2024-03-14 13h33.41.686296 -0700,
,Someday_110_condition-3-5x.wav,Someday__Someday__Maybe__Unabridged___File_048_of_116_3.wav,But still the dry cleaners own you You're at their mercy Clothes that have to be dry cleaned look down on you Is it the clothes who are to blame or the dry cleaning professionals themselves Chicken or the egg my friend This new dry cleaning conspiracy theory reminds me of your fear of ironing This is nothing like my fear of ironing Although ironing is another secret society that doesn't want you to know what's up Do you know anyone who can tell you why the ironing board is shaped that way How does it help me that it's the size of a surfboard,What is the dry cleaning conspiracy theory being compared to?,A. A fear of ironing,B. The shape of an ironing board,C. A secret society,D. A surfboard,A. A fear of ironing,yes,8.875,,,,,,,,,,,,,0,2,2,2,0,0,0,0,,,,,,,,,,,,,,,,,,,,,,,,,,,,,,,,,,,,,,,,,,,,,,,,,,,,,,,,,,,,,,,,,,,,,,,,,,,,,,,,,,,,,,p_5,001,2024-03-14_13h28.19.914,speech_rate,2023.2.3,None,2024-03-14 13h33.41.686296 -0700,
,Someday_110_condition-3-5x.wav,Someday__Someday__Maybe__Unabridged___File_048_of_116_3.wav,But still the dry cleaners own you You're at their mercy Clothes that have to be dry cleaned look down on you Is it the clothes who are to blame or the dry cleaning professionals themselves Chicken or the egg my friend This new dry cleaning conspiracy theory reminds me of your fear of ironing This is nothing like my fear of ironing Although ironing is another secret society that doesn't want you to know what's up Do you know anyone who can tell you why the ironing board is shaped that way How does it help me that it's the size of a surfboard,What is the dry cleaning conspiracy theory being compared to?,A. A fear of ironing,B. The shape of an ironing board,C. A secret society,D. A surfboard,A. A fear of ironing,yes,8.875,,,,,,,,,,,,,0,2,2,2,,,,,,,,,,,,,,,,,,,,,,,,,,,,,,,,,,,,,,,,,,,,,,,,,300.30656558300007,305.93337862499993,1,5.617805666000095,5.617808083,0,,,0,,,0,,,,,,,,,,,,,,,,,,,,,,,,,,,,,,p_5,001,2024-03-14_13h28.19.914,speech_rate,2023.2.3,None,2024-03-14 13h33.41.686296 -0700,
,Someday_67_condition.wav,Someday__Someday__Maybe__Unabridged___File_033_of_116_1.wav,Well I'm doing all right I guess I imagine myself saying but I'm about three inches from where I really want to be I think of how much effort has taken me to even be a 29 I can't imagine what else I could do to be a 26 but it makes sense too that the Cordelia Biscaynes of the world are literally measurably different from the rest of us Three inches might as well be 300 to me today Hi I'm Carol,What size does the narrator wear?,A. 29,B. 26,C. 30,D. 28,A. 29,no,29.22,,,,,,,,,,,,,0,3,3,3,,,,,,,,,305.9409680420001,,,,,,,,,,,,307.6815139580001,307.7307920000001,307.72098066700005,336.9300202500001,336.9570947500001,336.97844554200014,337.2138393330001,337.2138393330001,340.12303495800006,340.89676699999995,9.95,3.0985300840000036,1,[0.7883286249998491],[0.788330999999971],,,,,,,,,,,,,,340.89721695799994,347.01787954199995,1,6.112898250000171,6.112900666000087,0,,,0,,,0,,,,,,,,,,,305.933897958,305.9409680420001,305.9409680420001,305.9409680420001,307.681323542,1,[1.7458300420000796],[1.7458325830000376],,,,,,,,,,,,p_5,001,2024-03-14_13h28.19.914,speech_rate,2023.2.3,None,2024-03-14 13h33.41.686296 -0700,
,Someday_127_condition-2x.wav,Someday__Someday__Maybe__Unabridged___File_055_of_116_2.wav,Is that shirt clean I'll wear my Wonder Bra Where's my Wonder Bra I'm in and out of the shower in record time I used the towel that was on my head to dry off The moisture from the shower has done something helpful to my hair for once I can hear the fax machine whirring the paper falling onto the floor I'm curious to see the material I'll skim it before I get dressed to make sure I'm picking the right thing to wear I go to the machine and uncurl the first page Absolute Artists Appointment,What does the narrator find when she checks the fax machine?,A. A list of appointments,B. Her audition script,C. A towel,D. A Wonder Bra,B. Her audition script,no,14.6803125,,,,,,,,,,,,,0,4,4,4,,,,,,,,,347.0256630000001,,,,,,,,,,,,349.3487030420001,349.3647428746667,349.369508,364.0428871670001,364.04926408300025,364.07143566700006,364.2795042920002,364.2795042920002,367.1915814580002,367.8317623749999,6.958333333333333,3.0930497499998637,1,[0.6525337919997583],[0.6525359999995999],,,,,,,,,,,,,,367.8322022080001,372.13311720799993,1,4.29330337500005,4.293305459000294,0,,,0,,,0,,,,,,,,,,,347.018427792,347.0256630000001,347.0256630000001,347.0256630000001,349.348515875,1,[2.3282285420000335],[2.3282310420001977],,,,,,,,,,,,p_5,001,2024-03-14_13h28.19.914,speech_rate,2023.2.3,None,2024-03-14 13h33.41.686296 -0700,
,Someday_77_condition-3-5x.wav,Someday__Someday__Maybe__Unabridged___File_035_of_116_5.wav,I'm embarrassed to tell a stranger even a kind one all that I've been hoping for What a dumb question I'm asking It's torture telling someone what you want when you don't have it yet isn't it Barney says How are you supposed to know yet Am I right That makes me laugh Yes As my father the great Broadway director Irving Sparks always used to say we all have to start somewhere So start somewhere anywhere Give me an idea of what it is you'd like to do Tell me everything What is your dream,What advice that Barney Sparks give to the narrator?,A. To be picky,B. To start from somewhere,C. To find something else to do,D. To patiently wait for the right part,B. To start from somewhere,no,9.16875,,,,,,,,,,,,,0,5,5,5,,,,,,,,,372.1417509580001,,,,,,,,,,,,374.04328124999984,374.0592539996667,374.05851737500006,383.2271344169999,383.22933224999997,383.2405449170001,383.4476388329999,383.4476388329999,385.3273429579999,385.82111858300004,3.9333333333333336,2.06191600000011,1,[0.5033267079998041],[0.5033289170000899],,,,,,,,,,,,,,385.8215907919998,389.1347715830002,0,,,1,3.304451333999623,3.3044537499999933,0,,,0,,,,,,,,,,,372.13356354200005,372.1417509580001,372.1417509580001,372.1417509580001,374.0430798749999,1,[1.909121000000141],[1.9091235420000885],,,,,,,,,,,,p_5,001,2024-03-14_13h28.19.914,speech_rate,2023.2.3,None,2024-03-14 13h33.41.686296 -0700,
,Someday_141_condition-3x.wav,Someday__Someday__Maybe__Unabridged___File_088_of_116_1.wav,"Pink eye I keep repeating the phrase as if that will somehow make it disappear from Jane's face pink eye you have pink eye How can you be sure? Well by looking in the mirror for one thing, but maybe you just have something in your eye or allergies. Sorry Franny I've had it before this is what it looks like. It's really contagious. There's no way I can go Jane was going to be my date for Katie's wedding Jane had arranged the rental car in her name Jane has pink eye if you can't go I can't go",What does Jane have?,A. Cold,B. Pink eye,C. Flu,D. Bruises,B. Pink eye,no,11.27709375,,,,,,,,,,,,,0,6,6,6,,,,,,,,,389.14201275000005,,,,,,,,,,,,390.8676084580002,390.88364562466654,390.885718,402.1613869170001,402.1625142920002,402.18398583299995,402.3849607500001,402.3849607500001,404.395096833,404.92267112499985,6.1,2.1846080000000256,1,[0.5370427919997383],[0.5370449170000029],,,,,,,,,,,,,,404.9230957079999,406.485520833,0,,,1,1.5550482499997997,1.5550508339997577,0,,,0,,,,,,,,,,,389.1352347920001,389.14201275000005,389.14201275000005,389.14201275000005,390.86741633300016,1,[1.7305472500001997],[1.7305497500001366],,,,,,,,,,,,p_5,001,2024-03-14_13h28.19.914,speech_rate,2023.2.3,None,2024-03-14 13h33.41.686296 -0700,
,Someday_79_condition-2-5x.wav,Someday__Someday__Maybe__Unabridged___File_036_of_116_1.wav,But something is holding me back It would be so easy to say yes and leave this room with an agent almost too easy I Look around the room and the walls of old scripts and playbills that seemed warm and friendly when I first came in Now look cluttered and shabby the leather on the arms of this giant lumpy chair is worn thin The stuffing is peeking through one of the seams and the sunlight streaming through the window is cloudy with dust I stammer a bit,What is one of the factors that is preventing the narrator from immediately accepting the agent's offer?,A. The agent's appearance,B. The condition of the room,C. The agent's attitude,D. The lack of other actors,B. The condition of the room,no,12.446875,,,,,,,,,,,,,0,7,7,7,,,,,,,,,406.49298750000025,,,,,,,,,,,,408.3853035420002,408.4013456246669,408.4045177500002,420.846151833,420.8516112080001,420.8628181670001,421.0662493750001,421.0662493750001,422.7781489170002,423.33478620799997,6.05,1.8868535420001535,1,[0.5700345420000303],[0.5700372080000307],,,,,,,,,,,,,,423.33522295800003,430.62050579200013,0,,,1,7.276289500000075,7.276292083000044,0,,,0,,,,,,,,,,,406.48600399999987,406.49298750000025,406.49298750000025,406.49298750000025,408.38510995800016,1,[1.8974325409999437],[1.8974350829998912],,,,,,,,,,,,p_5,001,2024-03-14_13h28.19.914,speech_rate,2023.2.3,None,2024-03-14 13h33.41.686296 -0700,
,Someday_37_condition.wav,Someday__Someday__Maybe__Unabridged___File_020_of_116_2.wav,If only I hadn't missed the chair if only I made better undergarment choices I Want to ask someone how bad it was exactly But the backstage area is so small that all the students here now are waiting for their turn and too nervous to talk Anyone who could have been watching from the wings is probably downstairs now in the green room smoking cigarettes and talking about themselves As much as I want feedback I don't feel like going down there I can face one person trying in vain to convince me it wasn't so bad but not a sea of pitying faces,What is preventing the narrator from asking someone about their performance?,A. Fear of a large crowd,B. Lack of interest in feedback,C. The small backstage area,D. Smoking cigarettes in the green room,C. The small backstage area,no,28.59996875,,,,,,,,,,,,,0,8,8,8,,,,,,,,,430.6283121669999,,,,,,,,,,,,432.3031927920001,432.3358890833333,432.3369814580001,460.93149329200014,460.94180337499984,460.96321791699984,461.1687913330002,461.1687913330002,463.03211062499986,463.7768652919999,10,2.044297958000243,1,[0.7545207080002001],[0.7545229160000417],,,,,,,,,,,,,,463.7773292920001,470.9724335000001,1,7.185753124999792,7.18575570899975,0,,,0,,,0,,,,,,,,,,,430.620982292,430.6283121669999,430.6283121669999,430.6283121669999,432.303000333,1,[1.6816020000001117],[1.6816045840000697],,,,,,,,,,,,p_5,001,2024-03-14_13h28.19.914,speech_rate,2023.2.3,None,2024-03-14 13h33.41.686296 -0700,
,Someday_42_condition.wav,Someday__Someday__Maybe__Unabridged___File_023_of_116_0.wav,There will be another showcase next year but my deadline expires way before then and I refuse to break it I refuse to become one of those people who can't accept the truth that it just isn't going to happen for them Something cold grabs my heart and my mouth falls open Maybe I've already become one of them while I wasn't looking Maybe I can't accept the truth that it just isn't going to happen for me Maybe I already know but I can't admit it How many more days of waiting do I really need before I have to face facts,When will be the next showcase?,A. Next year,B. Next month,C. Next week,D. Next fall,A. Next year,no,29.42996875,,,,,,,,,,,,,0,9,9,9,,,,,,,,,470.9799992080002,,,,,,,,,,,,472.85805808299983,472.90730679200016,472.89824483300026,502.3206986250002,502.34353150000015,502.3648035420001,502.571166875,502.571166875,504.516343667,505.4290067920001,10,2.122461833000216,1,[0.9264775419997022],[0.9264798340000198],,,,,,,,,,,,,,505.42945045800025,509.95765737500005,0,,,1,4.5206736250001995,4.520675959000073,0,,,0,,,,,,,,,,,470.9729093750002,470.9799992080002,470.9799992080002,470.9799992080002,472.85787104200017,1,[1.883191375000024],[1.8831940420000137],,,,,,,,,,,,p_5,001,2024-03-14_13h28.19.914,speech_rate,2023.2.3,None,2024-03-14 13h33.41.686296 -0700,
,Someday_108_condition.wav,Someday__Someday__Maybe__Unabridged___File_048_of_116_1.wav,Clothes that have to be dry cleaned are already the most expensive clothes Then it's like they're charging you another 3 every time you wear them Regular clothes charge money to clean them if we're looking at it that way Regular laundry costs money too but not as much And you can do regular laundry yourself Dry cleaning is like the secret society you're not allowed into No matter what you're at their mercy You can have a PhD in anything but you still can't dry clean your own clothes They'll never tell you how No one's ever even seen what the machine looks like,What is the narrator's opinion about dry cleaning?,A. It's less expensive than regular laundry,B. It's a secret society with hidden machines,C. It's environmentally friendly,D. It's a simple and accessible process,B. It's a secret society with hidden machines,no,28.62003125,,,,,,,,,,,,,0,10,10,10,,,,,,,,,509.966169625,,,,,,,,,,,,511.8562952080001,511.8886197083334,511.88764641700027,540.519235667,540.520425875,540.5426376250002,540.7448960830002,540.7448960830002,542.8378303750001,543.709047333,9.841666666666667,2.270545833000142,1,[0.8806409590001749],[0.8806432920000589],,,,,,,,,,,,,,543.7095115830002,547.4368024999999,0,,,1,3.7178472919999876,3.7178500840000197,0,,,0,,,,,,,,,,,509.95812379200015,509.966169625,509.966169625,509.966169625,511.8561024579999,1,[1.8963243749999492],[1.8963269589999072],,,,,,,,,,,,p_5,001,2024-03-14_13h28.19.914,speech_rate,2023.2.3,None,2024-03-14 13h33.41.686296 -0700,
,Someday_121_condition-3x.wav,Someday__Someday__Maybe__Unabridged___File_054_of_116_1.wav,A lot of the shows have weight loss advice which is where I got the great cabbage soup diet which would have worked I'm sure if only I didn't hate cabbage She has celebrities on too and people who've overcome daunting odds of various kinds And I never know when I'll have to play a character who isn't close to me but might remind me of someone I saw on Lisa So really you could call the time I spend with Lisa almost educational But the thing is Pine Tree Lodge the soap opera is on right after that,What soap opera does the narrator watch after Lisa's program?,A. Steel Entrapment,B. Pine Tree Lodge,C. Kill Time,D. When Harry Met Sally,B. Pine Tree Lodge,no,11.1,,,,,,,,,,,,,0,11,11,11,,,,,,,,,547.4431670419999,,,,,,,,,,,,548.4744779170001,548.4901209586667,548.491547958,559.611552458,559.5920887500001,559.6033285419999,559.8063891669999,559.8063891669999,562.0377834999999,562.5978937079999,5.183333333333334,2.4094012909999947,1,[0.5697819160000108],[0.569784165999863],,,,,,,,,,,,,,562.5983187080001,564.910817,0,,,1,2.3034394999999677,2.303442500000074,0,,,0,,,,,,,,,,,547.437366875,547.4431670419999,547.4431670419999,547.4431670419999,548.4742959999999,1,[1.0365145840000878],[1.036517209000067],,,,,,,,,,,,p_5,001,2024-03-14_13h28.19.914,speech_rate,2023.2.3,None,2024-03-14 13h33.41.686296 -0700,
,Someday_8_condition-3x.wav,Someday__Someday__Maybe__Unabridged___File_007_of_116_1.wav,And one accomplishment a year wasn't exactly what I had in mind Still wedged halfway beneath the bed it takes all my strength to push a barely used roller blade out of the way At this point I'm just sweeping my arm back and forth making the same movement under my bed as I would if making a snow angel only the accumulated junk is a lot harder to move I give up for a moment resting my cheek against the cool wooden floor with a sigh Do you have any idea how few actors make it people always say,What does the narrator push out of the way?,A. Roller blades,B. Snow angel drawings,C. Junk that's hard to move,D. Cool wooden floor,A. Roller blades,yes,10.9425,,,,,,,,,,,,,0,12,12,12,0,0,0,0,0,0,0,0,581.2894880829999,,,,,,,,,,,,565.777510417,565.7935641246665,565.7932961249999,576.7380924170002,576.7392855829999,576.75052525,576.9578487919998,576.9578487919998,578.2705112500003,578.7933102920001,7.041666666666666,1.4916980829998465,1,[0.5360386249999465],[0.5360408340002323],,,,,,,,,,581.2802154169999,581.2894880829999,596.2779613749999,"Do you have any idea how few actors make it, people say. Roller skates. Junk under bed. Snow angel",,,,,,,,,,,,,,,596.2976242079999,,,,,,,,564.9112720419998,564.9193181250002,564.9193181250002,564.9193181250002,565.7773300419999,1,[0.8644064170002821],[0.8644088750002084],578.79380025,578.8038835420002,578.8038835420002,578.8038835420002,581.2793120420001,1,[2.4848091250000834],[2.4848117500000626],0,,,p_5,001,2024-03-14_13h28.19.914,speech_rate,2023.2.3,None,2024-03-14 13h33.41.686296 -0700,
,Someday_8_condition-3x.wav,Someday__Someday__Maybe__Unabridged___File_007_of_116_1.wav,And one accomplishment a year wasn't exactly what I had in mind Still wedged halfway beneath the bed it takes all my strength to push a barely used roller blade out of the way At this point I'm just sweeping my arm back and forth making the same movement under my bed as I would if making a snow angel only the accumulated junk is a lot harder to move I give up for a moment resting my cheek against the cool wooden floor with a sigh Do you have any idea how few actors make it people always say,What does the narrator push out of the way?,A. Roller blades,B. Snow angel drawings,C. Junk that's hard to move,D. Cool wooden floor,A. Roller blades,yes,10.9425,,,,,,,,,,,,,0,12,12,12,0,0,0,0,,,,,,,,,,,,,,,,,,,,,,,,,,,,,,,,,,,,,,,,,,,,,,,,,,,,,,,,,,,,,,,,,,,,,,,,,,,,,,,,,,,,,,p_5,001,2024-03-14_13h28.19.914,speech_rate,2023.2.3,None,2024-03-14 13h33.41.686296 -0700,
,Someday_8_condition-3x.wav,Someday__Someday__Maybe__Unabridged___File_007_of_116_1.wav,And one accomplishment a year wasn't exactly what I had in mind Still wedged halfway beneath the bed it takes all my strength to push a barely used roller blade out of the way At this point I'm just sweeping my arm back and forth making the same movement under my bed as I would if making a snow angel only the accumulated junk is a lot harder to move I give up for a moment resting my cheek against the cool wooden floor with a sigh Do you have any idea how few actors make it people always say,What does the narrator push out of the way?,A. Roller blades,B. Snow angel drawings,C. Junk that's hard to move,D. Cool wooden floor,A. Roller blades,yes,10.9425,,,,,,,,,,,,,0,12,12,12,,,,,,,,,,,,,,,,,,,,,,,,,,,,,,,,,,,,,,,,,,,,,,,,,596.278223625,602.3763007500002,1,6.088520707999578,6.088523374999568,0,,,0,,,0,,,,,,,,,,,,,,,,,,,,,,,,,,,,,,p_5,001,2024-03-14_13h28.19.914,speech_rate,2023.2.3,None,2024-03-14 13h33.41.686296 -0700,
,Someday_7_condition-3x.wav,Someday__Someday__Maybe__Unabridged___File_007_of_116_0.wav,You start out with a three year goal which then becomes a five year goal and before you know it you're still calling yourself an actor but most days you're being assigned a locker outside the cafeteria of the General Electric building so you can change into a borrowed pink polyester lunch lady uniform and serve lukewarm lasagna to a bunch of businessmen who call you excuse me I've made some progress but not enough to tell me for sure that I'm doing the right thing with my life It took most of the first year just to get the coveted waitressing job at the comedy club,What endeavor consumed most of the first year for the narrator?,A. Becaming a successful actress,B. Getting a job at General Electric,C. Getting a waitressing job,D. Becoming a comedian,C. Getting a waitressing job,no,10.84875,,,,,,,,,,,,,0,13,13,13,,,,,,,,,602.3892797080002,,,,,,,,,,,,603.7631322920001,603.7791615836666,603.77983425,614.6236242079999,614.6338439579999,614.6552004169998,614.8908361670001,614.8908361670001,616.6072412500002,617.2349783750001,6.125,1.9275824159999502,1,[0.6372889580002266],[0.6372913330001211],,,,,,,,,,,,,,617.2354235420003,621.0142970830002,0,,,0,,,1,3.7693857919998663,3.7693881249997503,0,,,,,,,,,,,602.3768768330001,602.3892797080002,602.3892797080002,602.3892797080002,603.762946417,1,[1.383850749999965],[1.3838531249998596],,,,,,,,,,,,p_5,001,2024-03-14_13h28.19.914,speech_rate,2023.2.3,None,2024-03-14 13h33.41.686296 -0700,
,Someday_132_condition.wav,Someday__Someday__Maybe__Unabridged___File_073_of_116_2.wav,"I place my bag down carefully, quietly, as if despite what he said, he's potentially both asleep and sick. I take my shoes off and tiptoe across the living room, up the circular metal staircase, and into my bedroom. I decide I'll call James after I shower, secretly hoping that he'll call me first. I'll wait until I'm completely ready to go out before I'll allow myself to even glance at the machine. If I don't cheat, if I'm strong, it will work. I bet he'll have called me by the time I finish getting ready.",What does the main character hope to do after getting home?,A. Call James,B. Check her email,C. Watch TV,D. Take a nap,A. Call James,no,31.024125,,,,,,,,,,,,,0,14,14,14,,,,,,,,,621.022612833,,,,,,,,,,,,622.0492550419999,622.098614667,622.0923983749999,653.1260176250003,653.127475625,653.148972208,653.3498702500001,653.3498702500001,655.5310421250001,656.1213980420002,10,2.357729083999857,1,[0.5996692499998062],[0.5996715410001343],,,,,,,,,,,,,,656.121806917,659.0935347919999,1,2.9636855830003697,2.9636882910003806,0,,,0,,,0,,,,,,,,,,,621.0147432080003,621.022612833,621.022612833,621.022612833,622.0490583330002,1,[1.0339057080000202],[1.03390837500001],,,,,,,,,,,,p_5,001,2024-03-14_13h28.19.914,speech_rate,2023.2.3,None,2024-03-14 13h33.41.686296 -0700,
,Someday_5_condition-3-5x.wav,Someday__Someday__Maybe__Unabridged___File_005_of_116_4.wav,I am late Frank is the neighbor whose apartment we can see into from the windows in the back of our brownstone Frank leads a mysterious solitary life but one you can set a clock by He rises at eight sits in front of a computer from nine to one goes out and gets a sandwich is back at the computer from two until six thirty is gone from six thirty to eight and then watches TV from eight until eleven p m after which he goes promptly to sleep The schedule never changes No one ever comes over,"Who is Frank, and what is his daily routine?","A. Frank is the narrator's neighbor, and he works from home.","B. Frank is the narrator's roommate, and he works from home.","C. Frank is the narrator's friend, and he enjoys watching TV all day.","D. Frank is the narrator's landlord, and he travels frequently.","A. Frank is the narrator's neighbor, and he works from home.",no,9.303125,,,,,,,,,,,,,0,15,15,15,,,,,,,,,659.1010877920003,,,,,,,,,,,,660.382761417,660.3987642916666,660.3969319170001,669.6934393750003,669.7025700419999,669.7127417500001,669.919330708,669.919330708,672.5358179170003,673.1160434170001,6.391666666666667,2.7971207089999552,1,[0.5894486249999318],[0.5894510420002916],,,,,,,,,,,,,,673.1165008329999,685.480491625,0,,,0,,,1,12.353183041000193,12.353185833000225,0,,,,,,,,,,,659.0940919580003,659.1010877920003,659.1010877920003,659.1010877920003,660.3825777920001,1,[1.2869799160002913],[1.2869824580002387],,,,,,,,,,,,p_5,001,2024-03-14_13h28.19.914,speech_rate,2023.2.3,None,2024-03-14 13h33.41.686296 -0700,
,Someday_119_condition-3-5x.wav,Someday__Someday__Maybe__Unabridged___File_053_of_116_1.wav,But when did you start doing this I didn't see any of it in the fridge Yeah no that's the best part You don't have to refrigerate it It comes in a box It's freeze dried in a package and you just take it out and soak it You soak it It sounds weird I know but it's actually very convenient because you can take it anywhere you know on the go Why can't you just eat actual healthy food the kind that doesn't require soaking Well obviously because I can't be trusted to control myself This teaches you portion control,Why does the narrator prefer soaked food?,A. Because it helps with portion control,B. Because it tastes good,C. Becauseit is cheap,D. Because the friend likes it,A. Because it helps with portion control,no,8.965625,,,,,,,,,,,,,0,16,16,16,,,,,,,,,685.4935798330002,,,,,,,,,,,,686.2826756250001,686.2983325836665,686.2972837920001,695.2846233330001,695.2658525830002,695.2770713750001,695.481644125,695.481644125,697.3775141669998,697.9843061669999,6.308333333333334,2.072517749999861,1,[0.6199397079999471],[0.6199419999998099],,,,,,,,,,,,,,697.984794125,702.4362966670001,1,4.443574666999666,4.443577000000005,0,,,0,,,0,,,,,,,,,,,685.481026208,685.4935798330002,685.4935798330002,685.4935798330002,686.2824797080002,1,[0.7999625409997861],[0.7999650829997336],,,,,,,,,,,,p_5,001,2024-03-14_13h28.19.914,speech_rate,2023.2.3,None,2024-03-14 13h33.41.686296 -0700,
,Someday_53_condition-3-5x.wav,Someday__Someday__Maybe__Unabridged___File_026_of_116_1.wav,It can be dangerous to take the subway all the way to Brooklyn this late I should take a cab she's right but I'm too embarrassed to tell her I only have about 8 in cash on me and probably less than 20 in my bank account so I can't even go to a cash machine I'll get tips and a tiny paycheck at my shift at the club tomorrow night which I'll take directly to the check cashing place on the skeevy part of Fifth Avenue in Brooklyn which will charge me almost a quarter of the check to turn it into immediate cash but I can't wait the five to seven days for the bank to clear it or the electric bill will bounce,Why is the narrator embarrassed to take a cab?,A. She doesn't have enough cash,B. She doesn't want to spend money,C. She prefers the subway,D. She doesn't know how to hail a cab,A. She doesn't have enough cash,no,9.2125,,,,,,,,,,,,,0,17,17,17,,,,,,,,,702.4438948749998,,,,,,,,,,,,703.1183612919999,703.1343810416668,703.1342407080001,712.3461513329999,712.3482497499999,712.3594547920002,712.5657727080002,712.5657727080002,714.4629341670002,715.0903939999998,3.408333333333333,2.078823666000062,1,[0.6369689579996702],[0.6369712079999772],,,,,,,,,,,,,,715.0908609580001,719.3369016249999,1,4.237575333000223,4.237577667000096,0,,,0,,,0,,,,,,,,,,,702.4367696670001,702.4438948749998,702.4438948749998,702.4438948749998,703.1181850829998,1,[0.6810207499997887],[0.6810231660001591],,,,,,,,,,,,p_5,001,2024-03-14_13h28.19.914,speech_rate,2023.2.3,None,2024-03-14 13h33.41.686296 -0700,
,Someday_68_condition-4x.wav,Someday__Someday__Maybe__Unabridged___File_033_of_116_2.wav,I'm looking into a giant mirror on a wall of mirrors each framed by dozens of fluorescent light bulbs In the blinding light my face looks nothing like the face I have in Brooklyn I wonder if this is my real face or if the face I have in Brooklyn is the real one and what my queen's face might look like Um no not that I can think of I tell her I wonder if I will over time develop preferences and what they might be in regard to my face being made up,How does the narrator describe the mirror she is looking at?,A. Framed by fluorescent lights,B. Vintage,C. Broken,D. Not big enough,A. Framed by fluorescent lights,no,7.455,,,,,,,,,,,,,0,18,18,18,,,,,,,,,719.3442235000002,,,,,,,,,,,,720.0864725000001,720.1025314996666,720.1002913749999,727.5633320000002,727.5646900000002,727.5759218329999,727.7824406670002,727.7824406670002,729.9637862079999,730.6250395830002,1.55,2.363078709000092,1,[0.6708135829999264],[0.6708160829998633],,,,,,,,,,,,,,730.6254586250002,736.5334760830001,0,,,0,,,0,,,1,5.900547499999902,5.90055054100003,,,,,,,,,719.3373255420001,719.3442235000002,719.3442235000002,719.3442235000002,720.0862938750001,1,[0.747713124999791],[0.7477156249997279],,,,,,,,,,,,p_5,001,2024-03-14_13h28.19.914,speech_rate,2023.2.3,None,2024-03-14 13h33.41.686296 -0700,
,Someday_65_condition-2-5x.wav,Someday__Someday__Maybe__Unabridged___File_032_of_116_0.wav,From the minute I walk into the wardrobe fitting in a trailer near mine I'm confused There are two giant rolling racks one full of tan trousers one stuffed with 30 or 40 identical blue shirts Oh Are there are there more people coming I ask a harried looking woman nearby She looks at me as though I've said something strange what oh the racks No those are all for you But aren't these all the same pants I say laughing a little,What does the narrator find confusing in the wardrobe fitting?,A. The lack of clothing options,B. The number of people there,C. The presence of a harried woman,D. The identical blue shirts and tan trousers,D. The identical blue shirts and tan trousers,yes,12.289375,,,,,,,,,,,,,0,19,19,19,0,0,0,0,0,0,0,0,755.0499731250002,,,,,,,,,,,,737.1705499580003,737.1866089166667,737.187721708,749.4812940420002,749.4825771670003,749.4938054580002,749.698529708,749.698529708,751.7483635829999,752.275983167,6.449999999999999,2.2298504579998735,1,[0.537176165999881],[0.5371785409997756],,,,,,,,,,755.0401215420002,755.0499731250002,770.0392843750001,dressing trailer room. aren't those all the same pants I say laughing a little. they are not for you. what?,,,,,,,,,,,,,,,770.0586242079999,,,,,,,,736.5340417080001,736.546912708,736.546912708,736.546912708,737.1703739170002,1,[0.6346846249998634],[0.6346871669998109],752.2764835829998,752.2819838330001,752.2819838330001,752.2819838330001,755.0392554579998,1,[2.7620421250003346],[2.762044708000303],0,,,p_5,001,2024-03-14_13h28.19.914,speech_rate,2023.2.3,None,2024-03-14 13h33.41.686296 -0700,
,Someday_65_condition-2-5x.wav,Someday__Someday__Maybe__Unabridged___File_032_of_116_0.wav,From the minute I walk into the wardrobe fitting in a trailer near mine I'm confused There are two giant rolling racks one full of tan trousers one stuffed with 30 or 40 identical blue shirts Oh Are there are there more people coming I ask a harried looking woman nearby She looks at me as though I've said something strange what oh the racks No those are all for you But aren't these all the same pants I say laughing a little,What does the narrator find confusing in the wardrobe fitting?,A. The lack of clothing options,B. The number of people there,C. The presence of a harried woman,D. The identical blue shirts and tan trousers,D. The identical blue shirts and tan trousers,yes,12.289375,,,,,,,,,,,,,0,19,19,19,0,0,0,0,,,,,,,,,,,,,,,,,,,,,,,,,,,,,,,,,,,,,,,,,,,,,,,,,,,,,,,,,,,,,,,,,,,,,,,,,,,,,,,,,,,,,,p_5,001,2024-03-14_13h28.19.914,speech_rate,2023.2.3,None,2024-03-14 13h33.41.686296 -0700,
,Someday_65_condition-2-5x.wav,Someday__Someday__Maybe__Unabridged___File_032_of_116_0.wav,From the minute I walk into the wardrobe fitting in a trailer near mine I'm confused There are two giant rolling racks one full of tan trousers one stuffed with 30 or 40 identical blue shirts Oh Are there are there more people coming I ask a harried looking woman nearby She looks at me as though I've said something strange what oh the racks No those are all for you But aren't these all the same pants I say laughing a little,What does the narrator find confusing in the wardrobe fitting?,A. The lack of clothing options,B. The number of people there,C. The presence of a harried woman,D. The identical blue shirts and tan trousers,D. The identical blue shirts and tan trousers,yes,12.289375,,,,,,,,,,,,,0,19,19,19,,,,,,,,,,,,,,,,,,,,,,,,,,,,,,,,,,,,,,,,,,,,,,,,,770.0394746249999,779.3360189999999,0,,,0,,,0,,,1,9.28712891699979,9.287131666999812,,,,,,,,,,,,,,,,,,,,,,,,,,,,p_5,001,2024-03-14_13h28.19.914,speech_rate,2023.2.3,None,2024-03-14 13h33.41.686296 -0700,
,Someday_50_condition-3-5x.wav,Someday__Someday__Maybe__Unabridged___File_025_of_116_3.wav,It was a high concept half hour pilot he said Cutting edge was the exact phrase he used I believe He said it had taken some convincing to get me an audition since I had no television experience but they'd agreed to see me So I read the script and it didn't seem like a TV show to me but I'm used to reading plays where anything can happen in the world of someone's memory or whatever You were used to reading things that were abstract Leighton says Or imaginative not totally set in reality yes So I'm picturing what it could be if done correctly,What was the description given for the pilot in the story?,A. A low-budget independent film,B. A high concept half-hour pilot,C. A traditional TV show format,D. A full-length feature film,B. A high concept half-hour pilot,yes,9.30625,,,,,,,,,,,,,0,20,20,20,0,0,0,0,0,0,0,0,794.9346808750001,,,,,,,,,,,,780.1566585830001,780.1726372086666,780.1710603330002,789.4731085829999,789.4849636670001,789.4962061249998,789.733782667,789.733782667,792.0894974170001,792.5564561669999,5.641666666666667,2.568084500000168,1,[0.47659404200021527],[0.4765962080000463],,,,,,,,,,794.9252750420001,794.9346808750001,809.9188291250002,cutting edge. it could be but it can't be. he says. haven't you before?,,,,,,,,,,,,,,,809.9386910829999,,,,,,,,779.3365504580001,779.3488200830002,779.3488200830002,779.3488200830002,780.1564802080002,1,[0.8194562920002681],[0.8194589590002579],792.5569150830001,792.5658489580001,792.5658489580001,792.5658489580001,794.9244508749998,1,[2.3667694589998973],[2.366772041999866],0,,,p_5,001,2024-03-14_13h28.19.914,speech_rate,2023.2.3,None,2024-03-14 13h33.41.686296 -0700,
,Someday_50_condition-3-5x.wav,Someday__Someday__Maybe__Unabridged___File_025_of_116_3.wav,It was a high concept half hour pilot he said Cutting edge was the exact phrase he used I believe He said it had taken some convincing to get me an audition since I had no television experience but they'd agreed to see me So I read the script and it didn't seem like a TV show to me but I'm used to reading plays where anything can happen in the world of someone's memory or whatever You were used to reading things that were abstract Leighton says Or imaginative not totally set in reality yes So I'm picturing what it could be if done correctly,What was the description given for the pilot in the story?,A. A low-budget independent film,B. A high concept half-hour pilot,C. A traditional TV show format,D. A full-length feature film,B. A high concept half-hour pilot,yes,9.30625,,,,,,,,,,,,,0,20,20,20,0,0,0,0,,,,,,,,,,,,,,,,,,,,,,,,,,,,,,,,,,,,,,,,,,,,,,,,,,,,,,,,,,,,,,,,,,,,,,,,,,,,,,,,,,,,,,p_5,001,2024-03-14_13h28.19.914,speech_rate,2023.2.3,None,2024-03-14 13h33.41.686296 -0700,
,Someday_50_condition-3-5x.wav,Someday__Someday__Maybe__Unabridged___File_025_of_116_3.wav,It was a high concept half hour pilot he said Cutting edge was the exact phrase he used I believe He said it had taken some convincing to get me an audition since I had no television experience but they'd agreed to see me So I read the script and it didn't seem like a TV show to me but I'm used to reading plays where anything can happen in the world of someone's memory or whatever You were used to reading things that were abstract Leighton says Or imaginative not totally set in reality yes So I'm picturing what it could be if done correctly,What was the description given for the pilot in the story?,A. A low-budget independent film,B. A high concept half-hour pilot,C. A traditional TV show format,D. A full-length feature film,B. A high concept half-hour pilot,yes,9.30625,,,,,,,,,,,,,0,20,20,20,,,,,,,,,,,,,,,,,,,,,,,,,,,,,,,,,,,,,,,,,,,,,,,,,809.9190793329999,816.278798458,0,,,1,6.349709000000075,6.349712582999928,0,,,0,,,,,,,,,,,,,,,,,,,,,,,,,,,,,,p_5,001,2024-03-14_13h28.19.914,speech_rate,2023.2.3,None,2024-03-14 13h33.41.686296 -0700,
,Someday_17_condition.wav,Someday__Someday__Maybe__Unabridged___File_011_of_116_0.wav,Are you sure you won't come back with me now He asked last time as I waited with him at his gate at the airport I just not yet Okay he said and then with a wink call me when you change your mind Sometimes when the tips are bad and my feet ache I wonder why I'm putting off the inevitable I wonder why I don't just pick up the phone and move to Chicago rather than continuing to attempt something that has a less than 5 success rate,What does the narrator contemplate while dealing with the hardships of her current situation?,A. Whether to continue waiting at the airport,B. Whether to ask for better tips to ease the pain in her feet,C. Why she is delaying a significant change in her life,D. Why she isn't more successful in her current endeavors,C. Why she is delaying a significant change in her life,no,28.68,,,,,,,,,,,,,0,21,21,21,,,,,,,,,816.286893167,,,,,,,,,,,,816.9897874170001,817.0220989163336,817.0205080420001,845.7031763750001,845.7044820420001,845.7266434170001,845.9575662080001,845.9575662080001,849.8592054999999,850.308836792,9.891666666666666,4.107481750000261,1,[0.4592185420001442],[0.4592208750000282],,,,,,,,,,,,,,850.3092531249999,868.029021667,0,,,0,,,0,,,1,17.709266790999663,17.70927029099994,,,,,,,,,816.279389708,816.286893167,816.286893167,816.286893167,816.98961125,1,[0.7086300410001058],[0.7086326250000639],,,,,,,,,,,,p_5,001,2024-03-14_13h28.19.914,speech_rate,2023.2.3,None,2024-03-14 13h33.41.686296 -0700,
,Someday_107_condition-2-5x.wav,Someday__Someday__Maybe__Unabridged___File_048_of_116_0.wav,One more thing from last night Yeah Apparently We're not supposed to wash our jeans anymore the wardrobe lady told me We are only supposed to dry clean them What That's insane Yep We're supposed to buy jeans really tight as tight as we can squeeze into so all the fat gets compressed into as little space as possible Then we want the fat compression level to stay that way for as long as it can right Well washing jeans makes them softer and baggier and lessens the fat compression quotient,Why are people advised not to wash their jeans anymore?,A. To save water and be more environmentally friendly,B. To maintain the tight fit and fat compression,C. To reduce laundry expenses,D. To prevent jeans from fading,B. To maintain the tight fit and fat compression,no,12.6875,,,,,,,,,,,,,0,22,22,22,,,,,,,,,868.0360380830002,,,,,,,,,,,,868.828300917,868.8443109166667,868.8456612919999,881.5283612920002,881.5331980000001,881.5444084169999,881.746262875,881.746262875,884.721580167,885.3123503749998,8.3,3.1493924169999445,1,[0.6035455000001093],[0.6035482500001308],,,,,,,,,,,,,,885.3127495829999,889.2630766249999,0,,,1,3.9415042919999905,3.941506792000382,0,,,0,,,,,,,,,,,868.0294914169999,868.0360380830002,868.0360380830002,868.0360380830002,868.8281057919999,1,[0.797150542000054],[0.7971530419999908],,,,,,,,,,,,p_5,001,2024-03-14_13h28.19.914,speech_rate,2023.2.3,None,2024-03-14 13h33.41.686296 -0700,
,Someday_87_condition-2-5x.wav,Someday__Someday__Maybe__Unabridged___File_039_of_116_0.wav,The reception area is a soothing soft grey Everything is plush and velvet The carpet looks like shiny grey silk and the sofa is a silvery suede that appears freshly brushed as though no one has ever sat on it There's a long reception desk behind which sit two of the most beautiful people I have ever seen also swathed in grey The perfect specimen male is reading a script and the perfect specimen female is on a headset talking to someone in a British accent,How does the narrator describe the reception area of Absolute Artists?,A. It's brightly colored,B. It's cold and uninviting,C. It's plush and soothing,D. It's chaotic and messy,C. It's plush and soothing,no,12.46,,,,,,,,,,,,,0,23,23,23,,,,,,,,,889.2715024170002,,,,,,,,,,,,890.3624650420002,890.3784578746665,890.3805300829999,902.8296793330001,902.8414199170002,902.8526837919999,903.0597944169999,903.0597944169999,904.9613595830001,905.4183057079999,5.0,2.084743165999953,1,[0.46598979200007307],[0.4659921669999676],,,,,,,,,,,,,,905.4187456250002,912.097403625,0,,,1,6.67046716699997,6.670469749999938,0,,,0,,,,,,,,,,,889.2635385419999,889.2715024170002,889.2715024170002,889.2715024170002,890.3622870419999,1,[1.0983249589999105],[1.098327541999879],,,,,,,,,,,,p_5,001,2024-03-14_13h28.19.914,speech_rate,2023.2.3,None,2024-03-14 13h33.41.686296 -0700,
,Someday_150_condition-2-5x.wav,Someday__Someday__Maybe__Unabridged___File_098_of_116_2.wav,"The cast has to be there early. I'll meet you at the end of the red carpet. I'm curious, but I'm not going to ask how one knows where the beginning or end of a carpet is, red or otherwise. I imagine the beginning to look something like the swirl where Dorothy sets out with Toto to follow the yellow brick road. I picture a welcoming committee of munchkins and Glinda the Good Witch who will help me find my way. Okay, great, I tell him, managing to sound more confident than I actually feel.",Where will James meet the narrator?,A. Outside the venue,B. In the backstage,C. At her house,D. At the end of the red carpet,D. At the end of the red carpet,no,12.06525,,,,,,,,,,,,,0,24,24,24,,,,,,,,,912.105877125,,,,,,,,,,,,912.7792218330001,912.7948272086667,912.7975135420002,924.882586833,924.8631962499999,924.8744067920002,925.0774455000001,925.0774455000001,926.506811583,926.996444417,6.483333333333333,1.6047954580003534,1,[0.5021957500002827],[0.5021980420001455],,,,,,,,,,,,,,926.9968616249998,931.53240375,0,,,0,,,0,,,1,4.527346000000307,4.527348458000233,,,,,,,,,912.0978436250002,912.105877125,912.105877125,912.105877125,912.7789937080001,1,[0.6797179160002997],[0.6797205000002577],,,,,,,,,,,,p_5,001,2024-03-14_13h28.19.914,speech_rate,2023.2.3,None,2024-03-14 13h33.41.686296 -0700,
,Someday_125_condition-3-5x.wav,Someday__Someday__Maybe__Unabridged___File_054_of_116_5.wav,I sit up as if he might be able to see through the telephone that I was lying down at an undignified hour still in the shorts and tank top I slept in I clear my throat and try to make my voice sound more awake It's me It's her That doesn't sound right It is I Hello I Did I wake you up No I'm awake Have a cold Oh shoot Is it a really bad one Joe has an audition for you I've just made an extremely speedy recovery Great Great,What does the narrator say she has?,A. A cold,B. A headache,C. A sore throat,D. A flu,A. A cold,no,9.353125,,,,,,,,,,,,,0,25,25,25,,,,,,,,,931.5399256670003,,,,,,,,,,,,932.2319642920002,932.2480120836665,932.2464479169998,941.5918615420001,941.6020785420001,941.613163125,941.8175652079999,941.8175652079999,943.7317148749999,944.3149000419999,3.1,2.093739666000147,1,[0.5927304169999843],[0.5927327499998682],,,,,,,,,,,,,,944.315335792,946.5330012919999,1,2.2109246670001994,2.2109269170000516,0,,,0,,,0,,,,,,,,,,,931.5328447080001,931.5399256670003,931.5399256670003,931.5399256670003,932.2317858330002,1,[0.6976367500001288],[0.6976391670000339],,,,,,,,,,,,p_5,001,2024-03-14_13h28.19.914,speech_rate,2023.2.3,None,2024-03-14 13h33.41.686296 -0700,
,Someday_11_condition-3-5x.wav,Someday__Someday__Maybe__Unabridged___File_008_of_116_3.wav,Hello Yes hi Dad I said Franny this is your father Dad I know How did you know it was me I told you we have caller ID now Is it curable Dad it's that thing where your number comes up when you call What a horrible invention Why would anyone want that So you know who's calling before you pick up Why don't you just say hello who's calling Dad what's up I have an audition To the point then Your Aunt Mary Ellen wanted me to remind you to book a room for Katie's wedding,What does the narrator's father want them to do regarding Katie's wedding?,A. Attend the rehersal dinner,B. Book a room for the wedding,C. Be a bridesmaid,D. Decline the wedding invitation,B. Book a room for the wedding,no,9.2,,,,,,,,,,,,,0,26,26,26,,,,,,,,,946.5411694580002,,,,,,,,,,,,947.2662560829999,947.2822654996669,947.2805925420002,956.4761752499999,956.4839829580001,956.4952114170001,956.7006775,956.7006775,958.362451,958.8612517500001,3.841666666666667,1.841779625000072,1,[0.5081111250001413],[0.5081140420002157],,,,,,,,,,,,,,958.8617235000002,971.0777029169999,0,,,0,,,1,12.206569583000146,12.206572542000231,0,,,,,,,,,,,946.5334277920001,946.5411694580002,946.5411694580002,946.5411694580002,947.2660635830002,1,[0.732212041999901],[0.7322146670003349],,,,,,,,,,,,p_5,001,2024-03-14_13h28.19.914,speech_rate,2023.2.3,None,2024-03-14 13h33.41.686296 -0700,
,Someday_22_condition.wav,Someday__Someday__Maybe__Unabridged___File_013_of_116_1.wav,Want to go with me to that diner on 8th and get a salad in between Salad Oh yeah I'm supposed to eat more salad It just never seems appealing In fact I was already planning to go to that diner on 8th for my usual pre class dinner Grilled cheese french fries and the New York Times crossword puzzle But for some reason I find myself making an excuse I can't I have another you know torture session after this one,What was the narrator already planning to eat at the diner?,A. Grilled cheese and fries,B. Salad,C. Pie,D. Club sandwich,A. Grilled cheese and fries,yes,28.11,,,,,,,,,,,,,0,27,27,27,0,0,0,0,0,0,0,0,1004.3964166250003,,,,,,,,,,,,971.6176127080003,971.6502992913333,971.648433583,999.7515268749999,999.7634401250002,999.7855452919998,999.9994360000001,999.9994360000001,1002.3560143330001,1002.9408229169999,9.933333333333334,2.542933500000345,1,[0.5942462500001966],[0.5942485830000805],,,,,,,,,,1004.3870919169999,1004.3964166250003,1019.3807566670002,"grilled cheese. salad. diner. I can't, I have an um another torture session after this one",,,,,,,,,,,,,,,1019.3985352079999,,,,,,,,971.0782492920002,971.084982417,971.084982417,971.084982417,971.6174282920001,1,[0.537722125000073],[0.5377246250000098],1002.9413495419999,1002.946319917,1002.946319917,1002.946319917,1004.386361375,1,[1.4442641249997905],[1.4442666249997274],0,,,p_5,001,2024-03-14_13h28.19.914,speech_rate,2023.2.3,None,2024-03-14 13h33.41.686296 -0700,
,Someday_22_condition.wav,Someday__Someday__Maybe__Unabridged___File_013_of_116_1.wav,Want to go with me to that diner on 8th and get a salad in between Salad Oh yeah I'm supposed to eat more salad It just never seems appealing In fact I was already planning to go to that diner on 8th for my usual pre class dinner Grilled cheese french fries and the New York Times crossword puzzle But for some reason I find myself making an excuse I can't I have another you know torture session after this one,What was the narrator already planning to eat at the diner?,A. Grilled cheese and fries,B. Salad,C. Pie,D. Club sandwich,A. Grilled cheese and fries,yes,28.11,,,,,,,,,,,,,0,27,27,27,0,0,0,0,,,,,,,,,,,,,,,,,,,,,,,,,,,,,,,,,,,,,,,,,,,,,,,,,,,,,,,,,,,,,,,,,,,,,,,,,,,,,,,,,,,,,,p_5,001,2024-03-14_13h28.19.914,speech_rate,2023.2.3,None,2024-03-14 13h33.41.686296 -0700,
,Someday_22_condition.wav,Someday__Someday__Maybe__Unabridged___File_013_of_116_1.wav,Want to go with me to that diner on 8th and get a salad in between Salad Oh yeah I'm supposed to eat more salad It just never seems appealing In fact I was already planning to go to that diner on 8th for my usual pre class dinner Grilled cheese french fries and the New York Times crossword puzzle But for some reason I find myself making an excuse I can't I have another you know torture session after this one,What was the narrator already planning to eat at the diner?,A. Grilled cheese and fries,B. Salad,C. Pie,D. Club sandwich,A. Grilled cheese and fries,yes,28.11,,,,,,,,,,,,,0,27,27,27,,,,,,,,,,,,,,,,,,,,,,,,,,,,,,,,,,,,,,,,,,,,,,,,,1019.381033833,1023.7497761670002,0,,,1,4.360845208999763,4.360847874999763,0,,,0,,,,,,,,,,,,,,,,,,,,,,,,,,,,,,p_5,001,2024-03-14_13h28.19.914,speech_rate,2023.2.3,None,2024-03-14 13h33.41.686296 -0700,
,Someday_96_condition-3x.wav,Someday__Someday__Maybe__Unabridged___File_042_of_116_0.wav,My point is about the competitive thing I've always naturally made everything a competition in a way so I already know I'm tough and it actually comes sort of easily to me And I'm not afraid to be hurt or rejected because I have naturally low self esteem anyway So I always expect the worst which is weird because I also have a vision for myself where I can totally picture succeeding well almost totally on a good day And I'm quick and I'm sure that whatever I don't know yet I can learn quickly because I'm quick which I know I just said because I'm quick Ha ha get it,How does the narrator feel about competition and their ability to succeed?,A. She is afraid of competition,B. She is quick to learn and not afraid of failure,C. She has low self-esteem and avoid competition,D. She believes in the concept of competition,B. She is quick to learn and not afraid of failure,no,10.68,,,,,,,,,,,,,0,28,28,28,,,,,,,,,1023.7632213329998,,,,,,,,,,,,1024.4536873749998,1024.4696675836665,1024.469278042,1035.147662708,1035.151396542,1035.1625934580002,1035.3986702920001,1035.3986702920001,1038.0074058750001,1038.6422564580002,5.258333333333334,2.8180588340001123,1,[0.6440298339998662],[0.6440321669997502],,,,,,,,,,,,,,1038.642725583,1045.6554175,0,,,1,7.003374584000085,7.003377042000011,0,,,0,,,,,,,,,,,1023.7503339999998,1023.7632213329998,1023.7632213329998,1023.7632213329998,1024.4535059170003,1,[0.7015838339998481],[0.7015864169998167],,,,,,,,,,,,p_5,001,2024-03-14_13h28.19.914,speech_rate,2023.2.3,None,2024-03-14 13h33.41.686296 -0700,
,Someday_144_condition-2-5x.wav,Someday__Someday__Maybe__Unabridged___File_092_of_116_1.wav,"Numbly, I watch my father behave in a way I've seldom seen. I'm riveted by how unfamiliar he seems to me, and I can't look away, even though his loopy expression makes me feel a little queasy. He's grinning so wide, he looks positively goofy. He calls her Dr. Mary, as in, Dr. Mary and I both love the New Haven Symphony season, and in response she laughs and rolls her eyes. It's so embarrassing when he calls me that, isn't it, Frances?",What does the narrator's father call the woman?,A. Dr. Mary,B. Dr. Shelly,C. Dr. Meryl,D. Dr. Kelly,A. Dr. Mary,no,12.91525,,,,,,,,,,,,,0,29,29,29,,,,,,,,,1045.663567167,,,,,,,,,,,,1046.3550380420002,1046.371074999667,1046.3730033330003,1059.2827763750001,1059.3004489170003,1059.3224756670002,1059.520502625,1059.520502625,1062.06623575,1062.6948070419999,6.375,2.7174192909997146,1,[0.6378104169998551],[0.6378128750002361],,,,,,,,,,,,,,1062.6952780000001,1071.0095618330001,1,8.306931833999897,8.306934333999834,0,,,0,,,0,,,,,,,,,,,1045.6558708329999,1045.663567167,1045.663567167,1045.663567167,1046.35485775,1,[0.6985801670002729],[0.6985825420001675],,,,,,,,,,,,p_5,001,2024-03-14_13h28.19.914,speech_rate,2023.2.3,None,2024-03-14 13h33.41.686296 -0700,
,Someday_10_condition.wav,Someday__Someday__Maybe__Unabridged___File_008_of_116_2.wav,I've worn this combination so many times before that today my all black outfit feels a little boring a little blah What would Jane do I think to myself and pull a chunky brown leather belt from the top shelf of the closet slinging it low around my hips Finally taking weather and product into consideration I take the top part of my hair and tie it into a small black velvet scrunchie on top of my head The phone begins to ring from its place on the landing between my room and Jane's Hi Dad,What does the narrator wear to their class after the audition?,A. A black dress,B. A white t-shirt,C. A red skirt,D. A brown leather belt,D. A brown leather belt,yes,28.93,,,,,,,,,,,,,0,30,30,30,0,0,0,0,0,0,0,0,1106.0529986249999,,,,,,,,,,,,1071.5394795420002,1071.5721425833335,1071.573011333,1100.501544958,1100.5034504999999,1100.5257206669999,1100.7380201249998,1100.7380201249998,1103.856594667,1104.39784375,10,3.306713750000199,1,[0.550358999999844],[0.5503615000002355],,,,,,,,,,1106.0433627920002,1106.0529986249999,1121.0364585000002,black outfit boring. what would jane do. brown chunky belt low hips. hair scrunchy. hi,,,,,,,,,,,,,,,1121.0548670419998,,,,,,,,1071.010100208,1071.01721125,1071.01721125,1071.01721125,1071.5393075420002,1,[0.5277071250002336],[0.5277103749999696],1104.398358125,1104.4046143750002,1104.4046143750002,1104.4046143750002,1106.0425097500001,1,[1.6433797500003493],[1.6433823750003285],0,,,p_5,001,2024-03-14_13h28.19.914,speech_rate,2023.2.3,None,2024-03-14 13h33.41.686296 -0700,
,Someday_10_condition.wav,Someday__Someday__Maybe__Unabridged___File_008_of_116_2.wav,I've worn this combination so many times before that today my all black outfit feels a little boring a little blah What would Jane do I think to myself and pull a chunky brown leather belt from the top shelf of the closet slinging it low around my hips Finally taking weather and product into consideration I take the top part of my hair and tie it into a small black velvet scrunchie on top of my head The phone begins to ring from its place on the landing between my room and Jane's Hi Dad,What does the narrator wear to their class after the audition?,A. A black dress,B. A white t-shirt,C. A red skirt,D. A brown leather belt,D. A brown leather belt,yes,28.93,,,,,,,,,,,,,0,30,30,30,0,0,0,0,,,,,,,,,,,,,,,,,,,,,,,,,,,,,,,,,,,,,,,,,,,,,,,,,,,,,,,,,,,,,,,,,,,,,,,,,,,,,,,,,,,,,,p_5,001,2024-03-14_13h28.19.914,speech_rate,2023.2.3,None,2024-03-14 13h33.41.686296 -0700,
,Someday_10_condition.wav,Someday__Someday__Maybe__Unabridged___File_008_of_116_2.wav,I've worn this combination so many times before that today my all black outfit feels a little boring a little blah What would Jane do I think to myself and pull a chunky brown leather belt from the top shelf of the closet slinging it low around my hips Finally taking weather and product into consideration I take the top part of my hair and tie it into a small black velvet scrunchie on top of my head The phone begins to ring from its place on the landing between my room and Jane's Hi Dad,What does the narrator wear to their class after the audition?,A. A black dress,B. A white t-shirt,C. A red skirt,D. A brown leather belt,D. A brown leather belt,yes,28.93,,,,,,,,,,,,,0,30,30,30,,,,,,,,,,,,,,,,,,,,,,,,,,,,,,,,,,,,,,,,,,,,,,,,,1121.0366933750001,1126.296552792,0,,,0,,,0,,,1,5.251530624999759,5.251533541999834,,,,,,,,,,,,,,,,,,,,,,,,,,,,p_5,001,2024-03-14_13h28.19.914,speech_rate,2023.2.3,None,2024-03-14 13h33.41.686296 -0700,
,Someday_49_condition-3x.wav,Someday__Someday__Maybe__Unabridged___File_025_of_116_2.wav,Ancient history Dina says but she's smiling And what about ever since I saw Dina in class I've wanted to ask about the series she did And tonight with a drink in my hand and the giddy flush of the day behind me I'm finally feeling bold enough to bring it up The show she says sharing a look with Leighton who smiles sympathetically Sorry I don't mean to It's fine Dina says shaking her head You I don't mind telling,What is Dina's reaction to the narrator's question?,A. She feels uncomfortable,B. She doesn't mind talking about it,C. She gets angry,D. She is happy to receive the question,B. She doesn't mind talking about it,no,10.61625,,,,,,,,,,,,,0,31,31,31,,,,,,,,,1126.3044597920002,,,,,,,,,,,,1127.6562103750002,1127.6693807086665,1127.673051833,1138.308083333,1138.2890629580002,1138.3002943750002,1138.5351946670003,1138.5351946670003,1141.4470455,1141.9816921249999,6.116666666666667,3.120211792000191,1,[0.544564249999894],[0.5445663749997038],,,,,,,,,,,,,,1141.982118583,1145.394907417,0,,,1,3.404489707999801,3.4044925829998647,0,,,0,,,,,,,,,,,1126.297104667,1126.3044597920002,1126.3044597920002,1126.3044597920002,1127.655432083,1,[1.3555655840000327],[1.3555766670001503],,,,,,,,,,,,p_5,001,2024-03-14_13h28.19.914,speech_rate,2023.2.3,None,2024-03-14 13h33.41.686296 -0700,
,Someday_28_condition-3x.wav,Someday__Someday__Maybe__Unabridged___File_017_of_116_0.wav,He has some sort of accent almost a drawl He's from the south somewhere Maybe he grew up on a farm in Texas or Georgia Maybe he had chores in the barn every day and helped his father harvest corn He still hasn't looked away from me He stands perfectly still not shifting at all I can feel myself rocking back and forth on my feet I try to stay steady like he does but it's impossible for me to do I really like your work in class I say ducking my head Oh yeah,How does the narrator feel about the person she encounters on the street?,A. She dislikes them,B. She is indifferent,C. She admires their work,D. She is terrified,C. She admires their work,no,10.55625,,,,,,,,,,,,,0,32,32,32,,,,,,,,,1145.4024812080002,,,,,,,,,,,,1146.0272814579998,1146.0432584586667,1146.0424536250002,1156.5930373750002,1156.6060068749998,1156.617242458,1156.8249915420001,1156.8249915420001,1159.0911242920001,1159.5170022920001,5.333333333333334,2.4479689579998194,1,[0.43531899999970847],[0.43532133300004716],,,,,,,,,,,,,,1159.517442708,1163.1289326249998,0,,,0,,,1,3.6030397500003346,3.6030422090002503,0,,,,,,,,,,,1145.395375917,1145.4024812080002,1145.4024812080002,1145.4024812080002,1146.0270998750002,1,[0.6312917079999352],[0.6312943749999249],,,,,,,,,,,,p_5,001,2024-03-14_13h28.19.914,speech_rate,2023.2.3,None,2024-03-14 13h33.41.686296 -0700,
,Someday_84_condition-2x.wav,Someday__Someday__Maybe__Unabridged___File_038_of_116_0.wav,The offices of absolute artists are on the 32nd floor of a sleek glass high rise building on 56th Street near Fifth Avenue in the middle of countless stores and apartments I could never afford I come to this part of town only once in a while to go to Central Park although I like our park in Brooklyn just as much The streets are wider here and the buildings are much taller than downtown and lots of people are wearing suits and carrying briefcases and crossing the street dangerously in the middle of the block,Where is Absolute Artists' office located?,A. In Brooklyn,B. On Fifth Avenue,C. By Central Park,D. On the 32nd floor of a high rise,D. On the 32nd floor of a high rise,yes,14.63,,,,,,,,,,,,,0,33,33,33,0,0,0,0,0,0,0,0,1183.57365875,,,,,,,,,,,,1163.678084875,1163.6940797496666,1163.697505,1178.321784458,1178.326967083,1178.33759,1178.5426862079999,1178.5426862079999,1180.9153957920003,1181.928036333,8.325,3.090979083000093,1,[1.0216864590001933],[1.0216889170001195],,,,,,,,,,1183.5641528330002,1183.57365875,1198.55756375,downtown . absolute artists. people in suits carrying briefcases. central park.,,,,,,,,,,,,,,,1198.575996208,,,,,,,,1163.1293526250001,1163.1362410830002,1163.1362410830002,1163.1362410830002,1163.6779085419998,1,[0.5471624580000025],[0.5471648749999076],1181.9285154580002,1181.9379494170003,1181.9379494170003,1181.9379494170003,1183.5633522080002,1,[1.6340833340000245],[1.6340859590000036],0,,,p_5,001,2024-03-14_13h28.19.914,speech_rate,2023.2.3,None,2024-03-14 13h33.41.686296 -0700,
,Someday_84_condition-2x.wav,Someday__Someday__Maybe__Unabridged___File_038_of_116_0.wav,The offices of absolute artists are on the 32nd floor of a sleek glass high rise building on 56th Street near Fifth Avenue in the middle of countless stores and apartments I could never afford I come to this part of town only once in a while to go to Central Park although I like our park in Brooklyn just as much The streets are wider here and the buildings are much taller than downtown and lots of people are wearing suits and carrying briefcases and crossing the street dangerously in the middle of the block,Where is Absolute Artists' office located?,A. In Brooklyn,B. On Fifth Avenue,C. By Central Park,D. On the 32nd floor of a high rise,D. On the 32nd floor of a high rise,yes,14.63,,,,,,,,,,,,,0,33,33,33,0,0,0,0,,,,,,,,,,,,,,,,,,,,,,,,,,,,,,,,,,,,,,,,,,,,,,,,,,,,,,,,,,,,,,,,,,,,,,,,,,,,,,,,,,,,,,p_5,001,2024-03-14_13h28.19.914,speech_rate,2023.2.3,None,2024-03-14 13h33.41.686296 -0700,
,Someday_84_condition-2x.wav,Someday__Someday__Maybe__Unabridged___File_038_of_116_0.wav,The offices of absolute artists are on the 32nd floor of a sleek glass high rise building on 56th Street near Fifth Avenue in the middle of countless stores and apartments I could never afford I come to this part of town only once in a while to go to Central Park although I like our park in Brooklyn just as much The streets are wider here and the buildings are much taller than downtown and lots of people are wearing suits and carrying briefcases and crossing the street dangerously in the middle of the block,Where is Absolute Artists' office located?,A. In Brooklyn,B. On Fifth Avenue,C. By Central Park,D. On the 32nd floor of a high rise,D. On the 32nd floor of a high rise,yes,14.63,,,,,,,,,,,,,0,33,33,33,,,,,,,,,,,,,,,,,,,,,,,,,,,,,,,,,,,,,,,,,,,,,,,,,1198.5578343749999,1204.7179060419999,0,,,1,6.151434333999987,6.151437583999723,0,,,0,,,,,,,,,,,,,,,,,,,,,,,,,,,,,,p_5,001,2024-03-14_13h28.19.914,speech_rate,2023.2.3,None,2024-03-14 13h33.41.686296 -0700,
,Someday_149_condition-4x.wav,Someday__Someday__Maybe__Unabridged___File_098_of_116_1.wav,"The minute James got back into town, any doubts I might have had about us evaporated. He was tanned from the sun, proof of his days spent shooting in the desert and the sight of him made me melt. I'm confused by his message though. We discussed going to the premiere of his movie together. You're sending a car, I say, when he picks up. Like a rental car? No, like a car with a driver to pick you up. Like a limousine? Well, no, that'll probably just be a town car, a sedan. Is that okay?",How will the narrator go to the premiere?,A. By calling a cab,B. By renting a car,C. She will be picked up by a driver,D. She will be picked up by Dan,C. She will be picked up by a driver,no,7.84875,,,,,,,,,,,,,0,34,34,34,,,,,,,,,1204.725835708,,,,,,,,,,,,1205.3305660830001,1205.3465880836668,1205.3454660000002,1213.1912002919998,1213.2016145420002,1213.212821042,1213.4458977079998,1213.4458977079998,1215.5900268330001,1216.0966817500002,3.0500000000000003,2.3490565409997544,1,[0.5193932090000999],[0.5193953749999309],,,,,,,,,,,,,,1216.0970817500001,1219.6319510829999,0,,,0,,,1,3.526948000000175,3.5269505830001435,0,,,,,,,,,,,1204.7184459169998,1204.725835708,1204.725835708,1204.725835708,1205.3303875830002,1,[0.6102632909996828],[0.6102657500000532],,,,,,,,,,,,p_5,001,2024-03-14_13h28.19.914,speech_rate,2023.2.3,None,2024-03-14 13h33.41.686296 -0700,
,Someday_51_condition-2x.wav,Someday__Someday__Maybe__Unabridged___File_025_of_116_4.wav,And he says Dina pauses as if the next part of the story is particularly hard to tell And he says only two things will happen with this One it's a giant hit and you're thanking me every year at the Emmys Or two they'll make the pilot it won't work it'll never air There's no scenario in between If for some reason they put this on the air and it isn't 100 fantastic he said it'll never last Dina and Leighton say together Then Dina slaps her palm to her forehead as if she still can't believe it,What does Dina do after telling the story?,A. She shakes her head,B. She slaps her palm to her forehead,C. She cries,D. She sits in silence,B. She slaps her palm to her forehead,no,14.98496875,,,,,,,,,,,,,0,35,35,35,,,,,,,,,1219.640110792,,,,,,,,,,,,1220.2295236670002,1220.2588998753336,1220.249495167,1235.231684542,1235.2457091249998,1235.256924833,1235.46184175,1235.46184175,1237.7763716670001,1238.2061090830002,7.591666666666667,2.494291874999817,1,[0.4391829169999255],[0.43919054199977836],,,,,,,,,,,,,,1238.206569167,1240.7336165830002,0,,,1,2.518679708000036,2.518682667000121,0,,,0,,,,,,,,,,,1219.632405792,1219.640110792,1219.640110792,1219.640110792,1220.229263875,1,[0.5957195000000866],[0.5957292910002252],,,,,,,,,,,,p_5,001,2024-03-14_13h28.19.914,speech_rate,2023.2.3,None,2024-03-14 13h33.41.686296 -0700,
,Someday_90_condition-3-5x.wav,Someday__Someday__Maybe__Unabridged___File_039_of_116_3.wav,There are so many to choose from I wonder if this is part of the audition and the chairs are a test I wonder if I'm being watched on a hidden camera I wonder if I should be worried about the alarming frequency that the concept of being watched on a hidden camera occurs to me But if I were being watched what chair would the people sitting behind the monitor in the hidden control room consider the right one Does Absolute Artists work only with people who choose to sit at the head of the table Does that say I'm a star Is that the kind of boldness they're looking for,Why does the narrator wonder if the chairs are part of the audition?,A. She thinks the chairs are being watched,B. She believes the chairs are a test,C. She wants to find the right chair to sit in,D. All of the above,D. All of the above,no,9.284375,,,,,,,,,,,,,0,36,36,36,,,,,,,,,1240.7406098750002,,,,,,,,,,,,1241.797914375,1241.8135332916665,1241.81271925,1251.0933945000002,1251.111697333,1251.1229308329998,1251.3301675829998,1251.3301675829998,1253.8921597500002,1254.3895016249999,5.733333333333333,2.742886833999819,1,[0.5085457499999393],[0.5085484579999502],,,,,,,,,,,,,,1254.3899900000001,1258.167259458,1,3.767678624999917,3.7676809580002555,0,,,0,,,0,,,,,,,,,,,1240.7340787500002,1240.7406098750002,1240.7406098750002,1240.7406098750002,1241.797718833,1,[1.0622639999996863],[1.062266582999655],,,,,,,,,,,,p_5,001,2024-03-14_13h28.19.914,speech_rate,2023.2.3,None,2024-03-14 13h33.41.686296 -0700,
,Someday_19_condition-4x.wav,Someday__Someday__Maybe__Unabridged___File_012_of_116_0.wav,No I'll push it his sister says giving him a little shove It's my callback The little boy shrinks back from the elevator buttons and I smile sympathetically at their mom but she seems mesmerized by a spot somewhere north of the top of my head so I decide to take a sudden interest in the laces of my shoes and endure the rest of the long creaky ride in silence Even in the best of elevators I think there's no place where time passes so slowly,Where is the narrator?,A. In an audition,B. In a kindergarden,C. In an elevator,D. In a parents meeting,C. In an elevator,yes,6.9775,,,,,,,,,,,,,0,37,37,37,0,0,0,0,0,0,0,0,1389.0360702500002,,,,,,,,,,,,1377.026134958,1377.0420593336669,1377.0392845830002,1384.0067465420002,1384.0215317920001,1384.0327374170001,1384.2351291250002,1384.2351291250002,1386.5186627500002,1387.147074125,1.0166666666666664,2.4615487080000094,1,[0.6372878330003005],[0.6372902500002056],,,,,,,,,,1389.0264215000002,1389.0360702500002,1404.025924083,shoes you're the best sicily no I'm shoes,,,,,,,,,,,,,,,1404.0440910420002,,,,,,,,1258.1677155420002,1258.1756260420002,1258.1756260420002,1258.1756260420002,1377.025923667,1,[118.85685908300002],[118.85686162500042],1387.147609,1387.153447583,1387.153447583,1387.153447583,1389.0254060420002,1,[1.876977542000077],[1.8769800840000244],0,,,p_5,001,2024-03-14_13h28.19.914,speech_rate,2023.2.3,None,2024-03-14 13h33.41.686296 -0700,
,Someday_19_condition-4x.wav,Someday__Someday__Maybe__Unabridged___File_012_of_116_0.wav,No I'll push it his sister says giving him a little shove It's my callback The little boy shrinks back from the elevator buttons and I smile sympathetically at their mom but she seems mesmerized by a spot somewhere north of the top of my head so I decide to take a sudden interest in the laces of my shoes and endure the rest of the long creaky ride in silence Even in the best of elevators I think there's no place where time passes so slowly,Where is the narrator?,A. In an audition,B. In a kindergarden,C. In an elevator,D. In a parents meeting,C. In an elevator,yes,6.9775,,,,,,,,,,,,,0,37,37,37,0,0,0,0,,,,,,,,,,,,,,,,,,,,,,,,,,,,,,,,,,,,,,,,,,,,,,,,,,,,,,,,,,,,,,,,,,,,,,,,,,,,,,,,,,,,,,p_5,001,2024-03-14_13h28.19.914,speech_rate,2023.2.3,None,2024-03-14 13h33.41.686296 -0700,
,Someday_19_condition-4x.wav,Someday__Someday__Maybe__Unabridged___File_012_of_116_0.wav,No I'll push it his sister says giving him a little shove It's my callback The little boy shrinks back from the elevator buttons and I smile sympathetically at their mom but she seems mesmerized by a spot somewhere north of the top of my head so I decide to take a sudden interest in the laces of my shoes and endure the rest of the long creaky ride in silence Even in the best of elevators I think there's no place where time passes so slowly,Where is the narrator?,A. In an audition,B. In a kindergarden,C. In an elevator,D. In a parents meeting,C. In an elevator,yes,6.9775,,,,,,,,,,,,,0,37,37,37,,,,,,,,,,,,,,,,,,,,,,,,,,,,,,,,,,,,,,,,,,,,,,,,,1404.0261892920003,1407.9057698750003,1,3.8712687919996824,3.871271458999672,0,,,0,,,0,,,,,,,,,,,,,,,,,,,,,,,,,,,,,,p_5,001,2024-03-14_13h28.19.914,speech_rate,2023.2.3,None,2024-03-14 13h33.41.686296 -0700,
,Someday_113_condition-4x.wav,Someday__Someday__Maybe__Unabridged___File_050_of_116_0.wav,She lives I think I need a manager Why do you need a manager I thought you just got an agent I did but they aren't getting me any auditions If you have no auditions what's there to manage A manager would help me get auditions How could a manager do that when the agents can't Well managers have fewer people so they can focus just on you And why do you have an agent at all Why not just have a manager You have to have an agent They're the only ones allowed to negotiate contracts Agents are franchised managers aren't,Why does the narrator want to get a manager?,A. To help negotiate contracts,B. To get auditions,C. Because agents are expensive,D. To manage the finances,B. To get auditions,no,7.005,,,,,,,,,,,,,0,38,38,38,,,,,,,,,1407.9186826250002,,,,,,,,,,,,1408.425732833,1408.441703208667,1408.440363583,1415.442059125,1415.454524708,1415.465323125,1415.6997244580002,1415.6997244580002,1417.668402417,1418.1471739170001,1.0166666666666664,2.17479345799984,1,[0.49189666600022974],[0.4918988750000608],,,,,,,,,,,,,,1418.1475985420002,1422.210803083,0,,,0,,,1,4.055285500000082,4.055288042000029,0,,,,,,,,,,,1407.906323917,1407.9186826250002,1407.9186826250002,1407.9186826250002,1408.4255600000001,1,[0.5187520829999812],[0.5187546249999286],,,,,,,,,,,,p_5,001,2024-03-14_13h28.19.914,speech_rate,2023.2.3,None,2024-03-14 13h33.41.686296 -0700,
,Someday_88_condition-4x.wav,Someday__Someday__Maybe__Unabridged___File_039_of_116_1.wav,It always seems like something that I should like more than I do though some flavors taste like dirty bath water Or maybe I don't like it on principle because I know it's supposed to be healthy If it was filled with calories and fat would I like it more and why oh why am I thinking about this right now This is hardly the time to make a ruling on such a difficult subject What no scotch I say and I can immediately feel my face flush red I put my hand on my hip in what I hope is a jaunty manner in an attempt to cover for the fact that I'm trying too hard,Why does the narrator say she puts her hand on her hip,A. To hide that she is trying too hard,B. To look attractive,C. To rest her hand,D. To be serious,A. To hide that she is trying too hard,no,7.205,,,,,,,,,,,,,0,39,39,39,,,,,,,,,1422.21774525,,,,,,,,,,,,1422.6600158750002,1422.6760262086666,1422.6731877920001,1429.8703096670001,1429.8883217500002,1429.899540042,1430.1026778750002,1430.1026778750002,1431.4694530000002,1431.915396542,1.0166666666666664,1.5413525409999238,1,[0.45916658399983135],[0.45916891700017004],,,,,,,,,,,,,,1431.9157997920001,1434.2442794580002,1,2.3206751669999903,2.3206774579998637,0,,,0,,,0,,,,,,,,,,,1422.2112642920001,1422.21774525,1422.21774525,1422.21774525,1422.6598427919998,1,[0.44723554199981663],[0.4472379579997323],,,,,,,,,,,,p_5,001,2024-03-14_13h28.19.914,speech_rate,2023.2.3,None,2024-03-14 13h33.41.686296 -0700,
,Someday_20_condition-3x.wav,Someday__Someday__Maybe__Unabridged___File_012_of_116_1.wav,Upstairs the waiting room is crowded which means there must be a few different casting calls There are boys and girls near the age of the elevator twins a couple of men in their 50s both in suit and tie and several girls who remind me of me but a better more put together me the me who would play me in the TV movie of the fictional life of the real me I sign in Name time arrived time scheduled agency social security number,What observation does the narrator make about the individuals in the waiting room?,A. They are all likely there for the same casting call,B. They are unorganized and scattered,"C. They appear to be different versions of the narrator, better and more composed",D. They are unrelated to the narrator's field of work,"C. They appear to be different versions of the narrator, better and more composed",no,10.2975,,,,,,,,,,,,,0,40,40,40,,,,,,,,,1434.2520896669998,,,,,,,,,,,,1434.777372083,1434.7933963336666,1434.79284,1445.1122194580003,1445.093421,1445.104618417,1445.307847042,1445.307847042,1446.792010792,1447.226472458,7.25,1.6635920829999122,1,[0.44348170900002515],[0.44348383399983504],,,,,,,,,,,,,,1447.226866083,1452.4813171670003,0,,,0,,,1,5.243971375000001,5.243974084000001,0,,,,,,,,,,,1434.244734667,1434.2520896669998,1434.2520896669998,1434.2520896669998,1434.7772003750001,1,[0.5311520420000306],[0.5311545419999675],,,,,,,,,,,,p_5,001,2024-03-14_13h28.19.914,speech_rate,2023.2.3,None,2024-03-14 13h33.41.686296 -0700,
,Someday_18_condition-4x.wav,Someday__Someday__Maybe__Unabridged___File_011_of_116_1.wav,The D train between Brooklyn and Manhattan is one of my favorite lines because at one the train emerges from underground and goes high over the river along the Manhattan Bridge Sometimes I put on my headphones and listen to music Sometimes I do the New York Times crossword puzzle And sometimes I read But no matter what else I'm doing I consider it very bad luck if I forget to look up as the train crosses over the East River even just for a second before it goes back underground It's just a superstition,Why does the narrator always look up when the D train crosses the East River?,A. To enjoy the view,B. To avoid bad luck,C. To read the subway signs,D. To see if it's raining,B. To avoid bad luck,yes,7.0225,,,,,,,,,,,,,0,41,41,41,0,0,0,0,0,0,0,0,1464.1730440420001,,,,,,,,,,,,1453.145242125,1453.1612467916668,1453.158103792,1460.188261875,1460.190093875,1460.2003693750003,1460.4070044579998,1460.4070044579998,1462.232019083,1463.200491167,1.0583333333333333,2.004781959000411,1,[0.9777679999997417],[0.9777703330000804],,,,,,,,,,1464.1636237500002,1464.1730440420001,1479.1569884169999,sometimes I read sometimes I do the new york times cross word puzzle ,,,,,,,,,,,,,,,1479.176145458,,,,,,,,1452.481852,1452.4873373330001,1452.4873373330001,1452.4873373330001,1453.1450680829998,1,[0.6627554589999818],[0.662758083999961],1463.2010272920002,1463.207015417,1463.207015417,1463.207015417,1464.1628221249998,1,[0.9610002909998911],[0.9610029999998915],0,,,p_5,001,2024-03-14_13h28.19.914,speech_rate,2023.2.3,None,2024-03-14 13h33.41.686296 -0700,
,Someday_18_condition-4x.wav,Someday__Someday__Maybe__Unabridged___File_011_of_116_1.wav,The D train between Brooklyn and Manhattan is one of my favorite lines because at one the train emerges from underground and goes high over the river along the Manhattan Bridge Sometimes I put on my headphones and listen to music Sometimes I do the New York Times crossword puzzle And sometimes I read But no matter what else I'm doing I consider it very bad luck if I forget to look up as the train crosses over the East River even just for a second before it goes back underground It's just a superstition,Why does the narrator always look up when the D train crosses the East River?,A. To enjoy the view,B. To avoid bad luck,C. To read the subway signs,D. To see if it's raining,B. To avoid bad luck,yes,7.0225,,,,,,,,,,,,,0,41,41,41,0,0,0,0,,,,,,,,,,,,,,,,,,,,,,,,,,,,,,,,,,,,,,,,,,,,,,,,,,,,,,,,,,,,,,,,,,,,,,,,,,,,,,,,,,,,,,p_5,001,2024-03-14_13h28.19.914,speech_rate,2023.2.3,None,2024-03-14 13h33.41.686296 -0700,
,Someday_18_condition-4x.wav,Someday__Someday__Maybe__Unabridged___File_011_of_116_1.wav,The D train between Brooklyn and Manhattan is one of my favorite lines because at one the train emerges from underground and goes high over the river along the Manhattan Bridge Sometimes I put on my headphones and listen to music Sometimes I do the New York Times crossword puzzle And sometimes I read But no matter what else I'm doing I consider it very bad luck if I forget to look up as the train crosses over the East River even just for a second before it goes back underground It's just a superstition,Why does the narrator always look up when the D train crosses the East River?,A. To enjoy the view,B. To avoid bad luck,C. To read the subway signs,D. To see if it's raining,B. To avoid bad luck,yes,7.0225,,,,,,,,,,,,,0,41,41,41,,,,,,,,,,,,,,,,,,,,,,,,,,,,,,,,,,,,,,,,,,,,,,,,,1479.15725725,1488.6168805420002,0,,,0,,,0,,,1,9.450398583000151,9.450402166000003,,,,,,,,,,,,,,,,,,,,,,,,,,,,p_5,001,2024-03-14_13h28.19.914,speech_rate,2023.2.3,None,2024-03-14 13h33.41.686296 -0700,
,Someday_81_condition-3-5x.wav,Someday__Someday__Maybe__Unabridged___File_037_of_116_2.wav,He's looking for meaning in his life and his art Oh is that all Yep Just the plain old everyday quest for the meaning of life A beautiful actress wearing glasses says something to the director played by Marcello Mastriani Her mouth keeps moving even after her voice has stopped The sink seems off It was the style of Italian filmmakers of the day to dub all the dialogue in later Dan explains eyes still pinned to the screen,What was the style of Italian filmmakers?,A. Dubbing all the dialogue later,B. Using a lot of jump cuts,C. Prioritizing cheap productions,D. Casting tall leads,A. Dubbing all the dialogue later,yes,9.446875,,,,,,,,,,,,,0,42,42,42,0,0,0,0,0,0,0,0,1502.775290125,,,,,,,,,,,,1489.0971843749999,1489.1131841246668,1489.1117060830002,1498.55767625,1498.562560625,1498.5838493750002,1498.821013833,1498.821013833,1500.8232027079998,1501.2987051670002,4.366666666666667,2.2124726250003732,1,[0.4870400410000002],[0.4870424579999053],,,,,,,,,,1502.765887083,1502.775290125,1517.7593648749998,stylist dan explains eyes still pinned to the screen. meaning. what? he was a stylist,,,,,,,,,,,,,,,1517.779232167,,,,,,,,1488.617427833,1488.625565833,1488.625565833,1488.625565833,1489.0970078330001,1,[0.4777049580002313],[0.47770758300021043],1501.299223375,1501.3056862920002,1501.3056862920002,1501.3056862920002,1502.7651473750002,1,[1.4650945419998607],[1.4650969169997552],0,,,p_5,001,2024-03-14_13h28.19.914,speech_rate,2023.2.3,None,2024-03-14 13h33.41.686296 -0700,
,Someday_81_condition-3-5x.wav,Someday__Someday__Maybe__Unabridged___File_037_of_116_2.wav,He's looking for meaning in his life and his art Oh is that all Yep Just the plain old everyday quest for the meaning of life A beautiful actress wearing glasses says something to the director played by Marcello Mastriani Her mouth keeps moving even after her voice has stopped The sink seems off It was the style of Italian filmmakers of the day to dub all the dialogue in later Dan explains eyes still pinned to the screen,What was the style of Italian filmmakers?,A. Dubbing all the dialogue later,B. Using a lot of jump cuts,C. Prioritizing cheap productions,D. Casting tall leads,A. Dubbing all the dialogue later,yes,9.446875,,,,,,,,,,,,,0,42,42,42,0,0,0,0,,,,,,,,,,,,,,,,,,,,,,,,,,,,,,,,,,,,,,,,,,,,,,,,,,,,,,,,,,,,,,,,,,,,,,,,,,,,,,,,,,,,,,p_5,001,2024-03-14_13h28.19.914,speech_rate,2023.2.3,None,2024-03-14 13h33.41.686296 -0700,
,Someday_81_condition-3-5x.wav,Someday__Someday__Maybe__Unabridged___File_037_of_116_2.wav,He's looking for meaning in his life and his art Oh is that all Yep Just the plain old everyday quest for the meaning of life A beautiful actress wearing glasses says something to the director played by Marcello Mastriani Her mouth keeps moving even after her voice has stopped The sink seems off It was the style of Italian filmmakers of the day to dub all the dialogue in later Dan explains eyes still pinned to the screen,What was the style of Italian filmmakers?,A. Dubbing all the dialogue later,B. Using a lot of jump cuts,C. Prioritizing cheap productions,D. Casting tall leads,A. Dubbing all the dialogue later,yes,9.446875,,,,,,,,,,,,,0,42,42,42,,,,,,,,,,,,,,,,,,,,,,,,,,,,,,,,,,,,,,,,,,,,,,,,,1517.7595879169999,1522.825840042,0,,,0,,,0,,,1,5.056058291000227,5.056061291000333,,,,,,,,,,,,,,,,,,,,,,,,,,,,p_5,001,2024-03-14_13h28.19.914,speech_rate,2023.2.3,None,2024-03-14 13h33.41.686296 -0700,
,Someday_98_condition.wav,Someday__Someday__Maybe__Unabridged___File_044_of_116_0.wav,Yes Laughing girl has no lines She just laughs She just so there's no scene Nope She's a girl She laughs They want a funny laugher That's it Take a seat They'll be with you in a minute I squeeze onto the lumpy sofa next to a skinny brunette wearing high heeled black boots and funky glasses I should wear high heeled boots instead of Doc Martens I think to myself as I break into a nervous sweat I should get some funky glasses I should have a funny laugh,What is the role that the narrator is auditioning for?,A. A dramatic lead,B. A character with no lines,C. A comedy writer,D. A serious actress,B. A character with no lines,no,29.11,,,,,,,,,,,,,0,43,43,43,,,,,,,,,1522.832853542,,,,,,,,,,,,1523.3986515000001,1523.4312715833335,1523.429987292,1552.534033458,1552.5457345,1552.5670329580003,1552.8095885829998,1552.8095885829998,1555.3594549580002,1555.8498285,10,2.764926542000012,1,[0.5032325000001947],[0.5032348750000892],,,,,,,,,,,,,,1555.850259292,1561.2188354579998,0,,,1,5.360863542000061,5.360866333000104,0,,,0,,,,,,,,,,,1522.8263577920002,1522.832853542,1522.832853542,1522.832853542,1523.3984742920002,1,[0.5705800000000636],[0.5705826250000428],,,,,,,,,,,,p_5,001,2024-03-14_13h28.19.914,speech_rate,2023.2.3,None,2024-03-14 13h33.41.686296 -0700,
,Someday_71_condition-3x.wav,Someday__Someday__Maybe__Unabridged___File_033_of_116_5.wav,Mavis Alicia Carol I say to myself Mavis Alicia Carol Do you like to do this yourself I look up for my magazine to find Carol waving a strange metal object in front of my face I have no idea what it is or what it might be used for I'm sorry what is that Carol peers over her glasses at me in surprise You've never seen one of these before No But of course you have It's an eyelash curler I'm sure your mother has one,What is the object that the narrator has never seen before?,A. A cushion foundation,B. A colorful eyeliner,C. An eyelash curler,D. A brow gel,C. An eyelash curler,yes,11.205,,,,,,,,,,,,,0,44,44,44,0,0,0,0,0,0,0,0,1576.9798713330001,,,,,,,,,,,,1562.219938917,1562.2356664166666,1562.237448458,1573.445123208,1573.447656542,1573.4588681670002,1573.6641036669998,1573.6641036669998,1575.279387083,1575.783886958,7.35,1.7954228749999857,1,[0.5139780419999624],[0.5139803330002906],,,,,,,,,,1576.9705786250001,1576.9798713330001,1591.9635806249998,"mavis alicia. carol. you've never seen one of these before? of course you have, it's an eyelash curler, I'm sure you",,,,,,,,,,,,,,,1591.982005375,,,,,,,,1561.2193043329999,1561.226702208,1561.226702208,1561.226702208,1562.2197099579998,1,[0.9997499169999173],[0.9997524579998753],1575.7844865420002,1575.7940168330001,1575.7940168330001,1575.7940168330001,1576.9697552920002,1,[1.1844894159999058],[1.1844919999998638],0,,,p_5,001,2024-03-14_13h28.19.914,speech_rate,2023.2.3,None,2024-03-14 13h33.41.686296 -0700,
,Someday_71_condition-3x.wav,Someday__Someday__Maybe__Unabridged___File_033_of_116_5.wav,Mavis Alicia Carol I say to myself Mavis Alicia Carol Do you like to do this yourself I look up for my magazine to find Carol waving a strange metal object in front of my face I have no idea what it is or what it might be used for I'm sorry what is that Carol peers over her glasses at me in surprise You've never seen one of these before No But of course you have It's an eyelash curler I'm sure your mother has one,What is the object that the narrator has never seen before?,A. A cushion foundation,B. A colorful eyeliner,C. An eyelash curler,D. A brow gel,C. An eyelash curler,yes,11.205,,,,,,,,,,,,,0,44,44,44,0,0,0,0,,,,,,,,,,,,,,,,,,,,,,,,,,,,,,,,,,,,,,,,,,,,,,,,,,,,,,,,,,,,,,,,,,,,,,,,,,,,,,,,,,,,,,p_5,001,2024-03-14_13h28.19.914,speech_rate,2023.2.3,None,2024-03-14 13h33.41.686296 -0700,
